participant,poste,session,round_number,understanding_faults,treatment,group_uid,paid_round,dictator,extraction,extraction_group,approbation,nb_approbation_yes_in_group,nb_approbation_no_in_group,approbation_group,extraction_dictateur,extraction_group_applied,extraction_applied,payoff,svo_group_uid,svo_choice_1,svo_choice_2,svo_choice_3,svo_choice_4,svo_choice_5,svo_choice_6,svo_mean_self,svo_mean_other,svo_score,svo_group_selected_choice,svo_group_selected_player,svo_group_selected_player_decision,svo_group_selected_player_payoff,svo_group_non_selected_player_payoff,NLE_nombre_cible,NLE_curseur_position,NLE_payoff,NLE_paid_decision,crt_1,crt_2,crt_3,crt_4,crt_5,crt_6,crt_7,crt_score,nep_1,nep_2,nep_3,nep_4,nep_5,nep_6,nep_7,nep_8,nep_9,nep_10,nep_11,nep_12,nep_13,nep_14,nep_15,nep_score,year_of_birth,gender,nationality,marital_status,student,study_level,study_discipline,socioprofessional_group,experiment_participation
zck3obfr,leem5,rpejdnjv,1,0.0,0,rpejdnjv_5,5.0,1,4.0,14.0,,,,,,,,240.0,rpejdnjv_5,0.0,8.0,8.0,3.0,4.0,8.0,82.167,74.667,37.482,6.0,1.0,0.0,100.0,50.0,12.2,2.8,2.53,13.0,2.0,0.25,5.0,12.0,30.0,10.0,0.0,4.0,3.0,2.0,3.0,3.0,5.0,3.0,5.0,2.0,5.0,2.0,3.0,1.0,4.0,2.0,3.0,58.0,1994.0,1.0,FR,0.0,1.0,6.0,17.0,,1.0
nkp7u01x,leem11,rpejdnjv,1,0.0,0,rpejdnjv_3,2.0,1,5.0,17.0,,,,,,,,228.0,rpejdnjv_9,0.0,8.0,8.0,7.0,0.0,0.0,91.833,57.667,10.386,3.0,1.0,3.0,63.0,94.0,12.2,4.7,2.63,7.0,200.0,0.5,3.0,9.0,29.0,10.0,0.0,2.0,4.0,4.0,5.0,4.0,5.0,5.0,5.0,1.0,4.0,3.0,4.0,1.0,5.0,1.0,3.0,58.0,2000.0,0.0,BI,0.0,1.0,3.0,6.0,,1.0
pvcmlcbn,leem1,rpejdnjv,1,2.0,0,rpejdnjv_6,19.0,0,6.0,19.0,,,,,,,,217.0,rpejdnjv_3,0.0,8.0,8.0,5.0,0.0,8.0,87.833,67.0,24.196,5.0,1.0,0.0,100.0,50.0,12.2,10.41,2.91,13.0,400.0,0.5,5.0,4.0,29.0,20.0,0.0,5.0,4.0,4.0,5.0,4.0,4.0,1.0,5.0,1.0,5.0,4.0,4.0,1.0,4.0,1.0,4.0,61.0,1999.0,1.0,DZ,0.0,1.0,2.0,12.0,,1.0
2nz72whh,leem4,rpejdnjv,1,0.0,0,rpejdnjv_2,2.0,1,3.0,14.0,,,,,,,,217.0,rpejdnjv_7,0.0,8.0,8.0,8.0,0.0,0.0,92.5,55.833,7.815,5.0,2.0,0.0,100.0,50.0,12.2,13.13,2.95,2.0,2.0,0.25,5.0,3.0,31.0,0.0,0.0,4.0,2.0,3.0,3.0,3.0,4.0,2.0,5.0,5.0,5.0,2.0,4.0,3.0,4.0,2.0,3.0,52.0,1995.0,1.0,FR,0.0,1.0,3.0,6.0,,1.0
ya5a8sr3,leem9,rpejdnjv,1,2.0,0,rpejdnjv_4,3.0,1,4.0,14.0,,,,,,,,240.0,rpejdnjv_6,1.0,8.0,8.0,8.0,0.0,0.0,92.5,54.333,5.821,6.0,2.0,0.0,100.0,50.0,12.2,16.93,2.76,7.0,400.0,0.5,3.0,6.0,15.0,10.0,0.0,1.0,3.0,1.0,5.0,5.0,5.0,5.0,4.0,2.0,5.0,1.0,3.0,3.0,4.0,3.0,5.0,56.0,1998.0,0.0,HT,0.0,1.0,2.0,0.0,,1.0
weolk6ul,leem16,rpejdnjv,1,0.0,0,rpejdnjv_3,11.0,0,8.0,17.0,,,,,,,,276.0,rpejdnjv_2,0.0,8.0,8.0,3.0,0.0,3.0,87.833,66.833,23.986,5.0,2.0,0.0,100.0,50.0,12.2,10.41,2.91,11.0,200.0,0.5,8.0,6.0,15.0,20.0,0.0,2.0,5.0,2.0,5.0,1.0,5.0,5.0,5.0,5.0,5.0,1.0,4.0,2.0,2.0,3.0,5.0,59.0,1998.0,0.0,MA,0.0,1.0,5.0,11.0,,1.0
7kvnqzhv,leem8,rpejdnjv,1,0.0,0,rpejdnjv_2,18.0,0,6.0,14.0,,,,,,,,285.0,rpejdnjv_8,0.0,8.0,8.0,3.0,4.0,5.0,83.167,72.5,34.152,3.0,2.0,8.0,85.0,85.0,12.2,30.93,2.06,4.0,200.0,0.5,3.0,9.0,30.0,10.0,0.0,1.0,4.0,4.0,5.0,5.0,4.0,5.0,5.0,4.0,5.0,3.0,2.0,4.0,5.0,5.0,4.0,46.0,1995.0,0.0,BJ,0.0,1.0,3.0,8.0,,0.0
ybkwbvii,leem6,rpejdnjv,1,0.0,0,rpejdnjv_5,3.0,0,4.0,14.0,,,,,,,,240.0,rpejdnjv_10,0.0,8.0,8.0,8.0,0.0,0.0,92.5,55.833,7.815,3.0,2.0,8.0,85.0,85.0,12.2,25.36,2.34,15.0,60.0,5.5,2.0,2.0,30.0,10.0,0.0,1.0,3.0,2.0,4.0,4.0,4.0,5.0,5.0,2.0,4.0,3.0,4.0,2.0,4.0,4.0,5.0,53.0,1995.0,0.0,IT,0.0,1.0,5.0,6.0,,1.0
emg0d2w7,leem2,rpejdnjv,1,1.0,0,rpejdnjv_6,2.0,0,8.0,19.0,,,,,,,,240.0,rpejdnjv_10,0.0,8.0,8.0,6.0,0.0,5.0,89.5,63.0,18.217,3.0,2.0,8.0,85.0,85.0,12.2,55.11,0.85,11.0,200.0,0.5,3.0,12.0,30.0,20.0,2.0,1.0,2.0,2.0,5.0,5.0,5.0,5.0,5.0,2.0,4.0,2.0,4.0,2.0,4.0,3.0,4.0,54.0,1992.0,0.0,CD,0.0,1.0,5.0,6.0,,1.0
wg2u2li2,leem12,rpejdnjv,1,0.0,0,rpejdnjv_4,13.0,0,4.0,14.0,,,,,,,,240.0,rpejdnjv_4,0.0,8.0,8.0,0.0,4.0,8.0,80.0,80.0,45.0,2.0,2.0,8.0,100.0,50.0,12.2,12.31,2.99,5.0,2.0,0.5,5.0,4.0,29.0,20.0,1.0,5.0,3.0,4.0,5.0,2.0,5.0,2.0,5.0,1.0,5.0,1.0,5.0,1.0,5.0,3.0,5.0,66.0,1998.0,1.0,FR,0.0,1.0,4.0,2.0,,1.0
cf9sd7cr,leem7,rpejdnjv,1,1.0,0,rpejdnjv_1,8.0,1,3.0,12.0,,,,,,,,231.0,rpejdnjv_6,0.0,8.0,8.0,8.0,0.0,0.0,92.5,55.833,7.815,6.0,2.0,0.0,100.0,50.0,12.2,8.92,2.84,14.0,200.0,0.5,3.0,9.0,15.0,10.0,0.0,1.0,5.0,2.0,5.0,2.0,5.0,1.0,5.0,2.0,5.0,1.0,5.0,1.0,3.0,2.0,5.0,69.0,1996.0,0.0,FR,0.0,1.0,5.0,26.0,,1.0
d3a3pcnp,leem15,rpejdnjv,1,0.0,0,rpejdnjv_3,6.0,0,4.0,17.0,,,,,,,,213.0,rpejdnjv_5,0.0,8.0,8.0,8.0,0.0,0.0,92.5,55.833,7.815,6.0,1.0,0.0,100.0,50.0,12.2,9.87,2.88,11.0,2.0,0.25,5.0,4.0,15.0,20.0,0.0,6.0,3.0,3.0,4.0,3.0,5.0,4.0,4.0,1.0,4.0,1.0,4.0,1.0,4.0,3.0,5.0,59.0,1994.0,0.0,FR,0.0,0.0,5.0,2.0,5.0,1.0
lwd3fp9l,leem18,rpejdnjv,1,1.0,0,rpejdnjv_6,3.0,1,5.0,19.0,,,,,,,,206.0,rpejdnjv_2,0.0,8.0,8.0,8.0,0.0,0.0,92.5,55.833,7.815,5.0,2.0,0.0,100.0,50.0,12.2,100.0,0.0,14.0,200.0,0.5,3.0,18.0,15.0,20.0,0.0,2.0,4.0,4.0,4.0,4.0,4.0,4.0,3.0,4.0,4.0,4.0,3.0,4.0,4.0,3.0,4.0,45.0,1994.0,1.0,FR,2.0,1.0,5.0,7.0,,1.0
z6p7eajj,leem14,rpejdnjv,1,0.0,0,rpejdnjv_2,9.0,0,5.0,14.0,,,,,,,,262.0,rpejdnjv_4,0.0,8.0,5.0,4.0,4.0,2.0,82.667,69.667,31.05,2.0,2.0,8.0,100.0,50.0,12.2,22.91,2.46,11.0,1.0,0.5,2.0,4.0,15.0,20.0,2.0,2.0,4.0,3.0,4.0,4.0,5.0,4.0,5.0,1.0,4.0,1.0,4.0,3.0,4.0,2.0,5.0,59.0,2002.0,0.0,FR,0.0,1.0,1.0,6.0,,1.0
eh6ljriq,leem10,rpejdnjv,1,0.0,0,rpejdnjv_1,18.0,0,4.0,12.0,,,,,,,,258.0,rpejdnjv_9,4.0,5.0,3.0,7.0,2.0,2.0,84.5,54.833,7.974,3.0,1.0,3.0,63.0,94.0,12.2,12.45,2.99,12.0,200.0,0.5,3.0,9.0,30.0,10.0,1.0,0.0,3.0,2.0,4.0,4.0,4.0,4.0,5.0,1.0,4.0,4.0,2.0,4.0,4.0,5.0,4.0,48.0,1994.0,0.0,DZ,0.0,1.0,5.0,16.0,,1.0
vmt5487m,leem17,rpejdnjv,1,0.0,0,rpejdnjv_4,7.0,0,6.0,14.0,,,,,,,,285.0,rpejdnjv_3,4.0,8.0,8.0,8.0,0.0,0.0,92.5,50.0,0.0,5.0,1.0,0.0,100.0,50.0,12.2,44.51,1.38,10.0,200.0,10.0,2.0,4.0,8.0,1.0,0.0,2.0,1.0,2.0,3.0,3.0,1.0,1.0,3.0,1.0,2.0,1.0,1.0,1.0,1.0,4.0,5.0,46.0,2000.0,0.0,FR,0.0,1.0,3.0,15.0,,1.0
5jr55zaa,leem3,rpejdnjv,1,0.0,0,rpejdnjv_1,18.0,0,5.0,12.0,,,,,,,,285.0,rpejdnjv_8,0.0,8.0,8.0,3.0,0.0,8.0,86.333,70.5,29.433,3.0,2.0,8.0,85.0,85.0,12.2,16.39,2.79,4.0,2.0,0.5,3.0,6.0,30.0,20.0,0.0,3.0,4.0,2.0,5.0,1.0,5.0,1.0,5.0,2.0,5.0,1.0,4.0,2.0,5.0,1.0,5.0,70.0,1996.0,0.0,FR,0.0,1.0,5.0,26.0,,1.0
nwik6h47,leem13,rpejdnjv,1,1.0,0,rpejdnjv_5,9.0,0,6.0,14.0,,,,,,,,285.0,rpejdnjv_7,0.0,8.0,8.0,8.0,4.0,8.0,85.833,65.833,23.838,5.0,2.0,0.0,100.0,50.0,12.2,6.33,2.71,9.0,400.0,0.5,1.0,9.0,15.0,10.0,0.0,1.0,3.0,4.0,4.0,5.0,4.0,4.0,4.0,4.0,5.0,3.0,4.0,4.0,4.0,4.0,4.0,46.0,1997.0,1.0,FR,0.0,1.0,5.0,15.0,,1.0
zck3obfr,leem5,rpejdnjv,2,,0,rpejdnjv_5,,0,4.0,16.0,,,,,,,,222.0,rpejdnjv_5,0.0,8.0,8.0,3.0,4.0,8.0,82.167,74.667,37.482,6.0,1.0,0.0,100.0,50.0,39.87,31.88,2.6,,2.0,0.25,5.0,12.0,30.0,10.0,0.0,4.0,3.0,2.0,3.0,3.0,5.0,3.0,5.0,2.0,5.0,2.0,3.0,1.0,4.0,2.0,3.0,58.0,1994.0,1.0,FR,0.0,1.0,6.0,17.0,,1.0
nkp7u01x,leem11,rpejdnjv,2,,0,rpejdnjv_3,,0,7.0,19.0,,,,,,,,228.0,rpejdnjv_9,0.0,8.0,8.0,7.0,0.0,0.0,91.833,57.667,10.386,3.0,1.0,3.0,63.0,94.0,39.87,39.62,2.99,,200.0,0.5,3.0,9.0,29.0,10.0,0.0,2.0,4.0,4.0,5.0,4.0,5.0,5.0,5.0,1.0,4.0,3.0,4.0,1.0,5.0,1.0,3.0,58.0,2000.0,0.0,BI,0.0,1.0,3.0,6.0,,1.0
pvcmlcbn,leem1,rpejdnjv,2,,0,rpejdnjv_6,,1,7.0,24.0,,,,,,,,150.0,rpejdnjv_3,0.0,8.0,8.0,5.0,0.0,8.0,87.833,67.0,24.196,5.0,1.0,0.0,100.0,50.0,39.87,44.65,2.76,,400.0,0.5,5.0,4.0,29.0,20.0,0.0,5.0,4.0,4.0,5.0,4.0,4.0,1.0,5.0,1.0,5.0,4.0,4.0,1.0,4.0,1.0,4.0,61.0,1999.0,1.0,DZ,0.0,1.0,2.0,12.0,,1.0
2nz72whh,leem4,rpejdnjv,2,,0,rpejdnjv_2,,1,5.0,18.0,,,,,,,,217.0,rpejdnjv_7,0.0,8.0,8.0,8.0,0.0,0.0,92.5,55.833,7.815,5.0,2.0,0.0,100.0,50.0,39.87,33.78,2.7,,2.0,0.25,5.0,3.0,31.0,0.0,0.0,4.0,2.0,3.0,3.0,3.0,4.0,2.0,5.0,5.0,5.0,2.0,4.0,3.0,4.0,2.0,3.0,52.0,1995.0,1.0,FR,0.0,1.0,3.0,6.0,,1.0
ya5a8sr3,leem9,rpejdnjv,2,,0,rpejdnjv_4,,0,3.0,13.0,,,,,,,,224.0,rpejdnjv_6,1.0,8.0,8.0,8.0,0.0,0.0,92.5,54.333,5.821,6.0,2.0,0.0,100.0,50.0,39.87,43.29,2.83,,400.0,0.5,3.0,6.0,15.0,10.0,0.0,1.0,3.0,1.0,5.0,5.0,5.0,5.0,4.0,2.0,5.0,1.0,3.0,3.0,4.0,3.0,5.0,56.0,1998.0,0.0,HT,0.0,1.0,2.0,0.0,,1.0
weolk6ul,leem16,rpejdnjv,2,,0,rpejdnjv_3,,0,7.0,19.0,,,,,,,,228.0,rpejdnjv_2,0.0,8.0,8.0,3.0,0.0,3.0,87.833,66.833,23.986,5.0,2.0,0.0,100.0,50.0,39.87,27.39,2.38,,200.0,0.5,8.0,6.0,15.0,20.0,0.0,2.0,5.0,2.0,5.0,1.0,5.0,5.0,5.0,5.0,5.0,1.0,4.0,2.0,2.0,3.0,5.0,59.0,1998.0,0.0,MA,0.0,1.0,5.0,11.0,,1.0
7kvnqzhv,leem8,rpejdnjv,2,,0,rpejdnjv_2,,0,7.0,18.0,,,,,,,,244.0,rpejdnjv_8,0.0,8.0,8.0,3.0,4.0,5.0,83.167,72.5,34.152,3.0,2.0,8.0,85.0,85.0,39.87,58.24,2.08,,200.0,0.5,3.0,9.0,30.0,10.0,0.0,1.0,4.0,4.0,5.0,5.0,4.0,5.0,5.0,4.0,5.0,3.0,2.0,4.0,5.0,5.0,4.0,46.0,1995.0,0.0,BJ,0.0,1.0,3.0,8.0,,0.0
ybkwbvii,leem6,rpejdnjv,2,,0,rpejdnjv_5,,1,6.0,16.0,,,,,,,,258.0,rpejdnjv_10,0.0,8.0,8.0,8.0,0.0,0.0,92.5,55.833,7.815,3.0,2.0,8.0,85.0,85.0,39.87,29.98,2.51,,60.0,5.5,2.0,2.0,30.0,10.0,0.0,1.0,3.0,2.0,4.0,4.0,4.0,5.0,5.0,2.0,4.0,3.0,4.0,2.0,4.0,4.0,5.0,53.0,1995.0,0.0,IT,0.0,1.0,5.0,6.0,,1.0
emg0d2w7,leem2,rpejdnjv,2,,0,rpejdnjv_6,,0,9.0,24.0,,,,,,,,150.0,rpejdnjv_10,0.0,8.0,8.0,6.0,0.0,5.0,89.5,63.0,18.217,3.0,2.0,8.0,85.0,85.0,39.87,81.33,0.93,,200.0,0.5,3.0,12.0,30.0,20.0,2.0,1.0,2.0,2.0,5.0,5.0,5.0,5.0,5.0,2.0,4.0,2.0,4.0,2.0,4.0,3.0,4.0,54.0,1992.0,0.0,CD,0.0,1.0,5.0,6.0,,1.0
wg2u2li2,leem12,rpejdnjv,2,,0,rpejdnjv_4,,0,4.0,13.0,,,,,,,,249.0,rpejdnjv_4,0.0,8.0,8.0,0.0,4.0,8.0,80.0,80.0,45.0,2.0,2.0,8.0,100.0,50.0,39.87,36.09,2.81,,2.0,0.5,5.0,4.0,29.0,20.0,1.0,5.0,3.0,4.0,5.0,2.0,5.0,2.0,5.0,1.0,5.0,1.0,5.0,1.0,5.0,3.0,5.0,66.0,1998.0,1.0,FR,0.0,1.0,4.0,2.0,,1.0
cf9sd7cr,leem7,rpejdnjv,2,,0,rpejdnjv_1,,0,5.0,13.0,,,,,,,,273.0,rpejdnjv_6,0.0,8.0,8.0,8.0,0.0,0.0,92.5,55.833,7.815,6.0,2.0,0.0,100.0,50.0,39.87,34.87,2.75,,200.0,0.5,3.0,9.0,15.0,10.0,0.0,1.0,5.0,2.0,5.0,2.0,5.0,1.0,5.0,2.0,5.0,1.0,5.0,1.0,3.0,2.0,5.0,69.0,1996.0,0.0,FR,0.0,1.0,5.0,26.0,,1.0
d3a3pcnp,leem15,rpejdnjv,2,,0,rpejdnjv_3,,1,5.0,19.0,,,,,,,,206.0,rpejdnjv_5,0.0,8.0,8.0,8.0,0.0,0.0,92.5,55.833,7.815,6.0,1.0,0.0,100.0,50.0,39.87,35.95,2.8,,2.0,0.25,5.0,4.0,15.0,20.0,0.0,6.0,3.0,3.0,4.0,3.0,5.0,4.0,4.0,1.0,4.0,1.0,4.0,1.0,4.0,3.0,5.0,59.0,1994.0,0.0,FR,0.0,0.0,5.0,2.0,5.0,1.0
lwd3fp9l,leem18,rpejdnjv,2,,0,rpejdnjv_6,,0,8.0,24.0,,,,,,,,150.0,rpejdnjv_2,0.0,8.0,8.0,8.0,0.0,0.0,92.5,55.833,7.815,5.0,2.0,0.0,100.0,50.0,39.87,23.32,2.17,,200.0,0.5,3.0,18.0,15.0,20.0,0.0,2.0,4.0,4.0,4.0,4.0,4.0,4.0,3.0,4.0,4.0,4.0,3.0,4.0,4.0,3.0,4.0,45.0,1994.0,1.0,FR,2.0,1.0,5.0,7.0,,1.0
z6p7eajj,leem14,rpejdnjv,2,,0,rpejdnjv_2,,0,6.0,18.0,,,,,,,,231.0,rpejdnjv_4,0.0,8.0,5.0,4.0,4.0,2.0,82.667,69.667,31.05,2.0,2.0,8.0,100.0,50.0,39.87,35.68,2.79,,1.0,0.5,2.0,4.0,15.0,20.0,2.0,2.0,4.0,3.0,4.0,4.0,5.0,4.0,5.0,1.0,4.0,1.0,4.0,3.0,4.0,2.0,5.0,59.0,2002.0,0.0,FR,0.0,1.0,1.0,6.0,,1.0
eh6ljriq,leem10,rpejdnjv,2,,0,rpejdnjv_1,,0,5.0,13.0,,,,,,,,273.0,rpejdnjv_9,4.0,5.0,3.0,7.0,2.0,2.0,84.5,54.833,7.974,3.0,1.0,3.0,63.0,94.0,39.87,35.68,2.79,,200.0,0.5,3.0,9.0,30.0,10.0,1.0,0.0,3.0,2.0,4.0,4.0,4.0,4.0,5.0,1.0,4.0,4.0,2.0,4.0,4.0,5.0,4.0,48.0,1994.0,0.0,DZ,0.0,1.0,5.0,16.0,,1.0
vmt5487m,leem17,rpejdnjv,2,,0,rpejdnjv_4,,1,6.0,13.0,,,,,,,,298.0,rpejdnjv_3,4.0,8.0,8.0,8.0,0.0,0.0,92.5,50.0,0.0,5.0,1.0,0.0,100.0,50.0,39.87,59.46,2.02,,200.0,10.0,2.0,4.0,8.0,1.0,0.0,2.0,1.0,2.0,3.0,3.0,1.0,1.0,3.0,1.0,2.0,1.0,1.0,1.0,1.0,4.0,5.0,46.0,2000.0,0.0,FR,0.0,1.0,3.0,15.0,,1.0
5jr55zaa,leem3,rpejdnjv,2,,0,rpejdnjv_1,,1,3.0,13.0,,,,,,,,224.0,rpejdnjv_8,0.0,8.0,8.0,3.0,0.0,8.0,86.333,70.5,29.433,3.0,2.0,8.0,85.0,85.0,39.87,32.29,2.62,,2.0,0.5,3.0,6.0,30.0,20.0,0.0,3.0,4.0,2.0,5.0,1.0,5.0,1.0,5.0,2.0,5.0,1.0,4.0,2.0,5.0,1.0,5.0,70.0,1996.0,0.0,FR,0.0,1.0,5.0,26.0,,1.0
nwik6h47,leem13,rpejdnjv,2,,0,rpejdnjv_5,,0,6.0,16.0,,,,,,,,258.0,rpejdnjv_7,0.0,8.0,8.0,8.0,4.0,8.0,85.833,65.833,23.838,5.0,2.0,0.0,100.0,50.0,39.87,40.44,2.97,,400.0,0.5,1.0,9.0,15.0,10.0,0.0,1.0,3.0,4.0,4.0,5.0,4.0,4.0,4.0,4.0,5.0,3.0,4.0,4.0,4.0,4.0,4.0,46.0,1997.0,1.0,FR,0.0,1.0,5.0,15.0,,1.0
zck3obfr,leem5,rpejdnjv,3,,0,rpejdnjv_5,,1,4.0,17.0,,,,,,,,213.0,rpejdnjv_5,0.0,8.0,8.0,3.0,4.0,8.0,82.167,74.667,37.482,6.0,1.0,0.0,100.0,50.0,68.02,75.08,2.65,,2.0,0.25,5.0,12.0,30.0,10.0,0.0,4.0,3.0,2.0,3.0,3.0,5.0,3.0,5.0,2.0,5.0,2.0,3.0,1.0,4.0,2.0,3.0,58.0,1994.0,1.0,FR,0.0,1.0,6.0,17.0,,1.0
nkp7u01x,leem11,rpejdnjv,3,,0,rpejdnjv_3,,0,7.0,22.0,,,,,,,,181.0,rpejdnjv_9,0.0,8.0,8.0,7.0,0.0,0.0,91.833,57.667,10.386,3.0,1.0,3.0,63.0,94.0,68.02,61.77,2.69,,200.0,0.5,3.0,9.0,29.0,10.0,0.0,2.0,4.0,4.0,5.0,4.0,5.0,5.0,5.0,1.0,4.0,3.0,4.0,1.0,5.0,1.0,3.0,58.0,2000.0,0.0,BI,0.0,1.0,3.0,6.0,,1.0
pvcmlcbn,leem1,rpejdnjv,3,,0,rpejdnjv_6,,0,7.0,21.0,,,,,,,,197.0,rpejdnjv_3,0.0,8.0,8.0,5.0,0.0,8.0,87.833,67.0,24.196,5.0,1.0,0.0,100.0,50.0,68.02,63.81,2.79,,400.0,0.5,5.0,4.0,29.0,20.0,0.0,5.0,4.0,4.0,5.0,4.0,4.0,1.0,5.0,1.0,5.0,4.0,4.0,1.0,4.0,1.0,4.0,61.0,1999.0,1.0,DZ,0.0,1.0,2.0,12.0,,1.0
2nz72whh,leem4,rpejdnjv,3,,0,rpejdnjv_2,,1,7.0,18.0,,,,,,,,244.0,rpejdnjv_7,0.0,8.0,8.0,8.0,0.0,0.0,92.5,55.833,7.815,5.0,2.0,0.0,100.0,50.0,68.02,64.76,2.84,,2.0,0.25,5.0,3.0,31.0,0.0,0.0,4.0,2.0,3.0,3.0,3.0,4.0,2.0,5.0,5.0,5.0,2.0,4.0,3.0,4.0,2.0,3.0,52.0,1995.0,1.0,FR,0.0,1.0,3.0,6.0,,1.0
ya5a8sr3,leem9,rpejdnjv,3,,0,rpejdnjv_4,,0,5.0,22.0,,,,,,,,172.0,rpejdnjv_6,1.0,8.0,8.0,8.0,0.0,0.0,92.5,54.333,5.821,6.0,2.0,0.0,100.0,50.0,68.02,76.58,2.57,,400.0,0.5,3.0,6.0,15.0,10.0,0.0,1.0,3.0,1.0,5.0,5.0,5.0,5.0,4.0,2.0,5.0,1.0,3.0,3.0,4.0,3.0,5.0,56.0,1998.0,0.0,HT,0.0,1.0,2.0,0.0,,1.0
weolk6ul,leem16,rpejdnjv,3,,0,rpejdnjv_3,,1,8.0,22.0,,,,,,,,186.0,rpejdnjv_2,0.0,8.0,8.0,3.0,0.0,3.0,87.833,66.833,23.986,5.0,2.0,0.0,100.0,50.0,68.02,67.48,2.97,,200.0,0.5,8.0,6.0,15.0,20.0,0.0,2.0,5.0,2.0,5.0,1.0,5.0,5.0,5.0,5.0,5.0,1.0,4.0,2.0,2.0,3.0,5.0,59.0,1998.0,0.0,MA,0.0,1.0,5.0,11.0,,1.0
7kvnqzhv,leem8,rpejdnjv,3,,0,rpejdnjv_2,,0,7.0,18.0,,,,,,,,244.0,rpejdnjv_8,0.0,8.0,8.0,3.0,4.0,5.0,83.167,72.5,34.152,3.0,2.0,8.0,85.0,85.0,68.02,10.68,0.13,,200.0,0.5,3.0,9.0,30.0,10.0,0.0,1.0,4.0,4.0,5.0,5.0,4.0,5.0,5.0,4.0,5.0,3.0,2.0,4.0,5.0,5.0,4.0,46.0,1995.0,0.0,BJ,0.0,1.0,3.0,8.0,,0.0
ybkwbvii,leem6,rpejdnjv,3,,0,rpejdnjv_5,,0,5.0,17.0,,,,,,,,228.0,rpejdnjv_10,0.0,8.0,8.0,8.0,0.0,0.0,92.5,55.833,7.815,3.0,2.0,8.0,85.0,85.0,68.02,0.0,0.0,,60.0,5.5,2.0,2.0,30.0,10.0,0.0,1.0,3.0,2.0,4.0,4.0,4.0,5.0,5.0,2.0,4.0,3.0,4.0,2.0,4.0,4.0,5.0,53.0,1995.0,0.0,IT,0.0,1.0,5.0,6.0,,1.0
emg0d2w7,leem2,rpejdnjv,3,,0,rpejdnjv_6,,0,6.0,21.0,,,,,,,,190.0,rpejdnjv_10,0.0,8.0,8.0,6.0,0.0,5.0,89.5,63.0,18.217,3.0,2.0,8.0,85.0,85.0,68.02,67.61,2.98,,200.0,0.5,3.0,12.0,30.0,20.0,2.0,1.0,2.0,2.0,5.0,5.0,5.0,5.0,5.0,2.0,4.0,2.0,4.0,2.0,4.0,3.0,4.0,54.0,1992.0,0.0,CD,0.0,1.0,5.0,6.0,,1.0
wg2u2li2,leem12,rpejdnjv,3,,0,rpejdnjv_4,,0,10.0,22.0,,,,,,,,195.0,rpejdnjv_4,0.0,8.0,8.0,0.0,4.0,8.0,80.0,80.0,45.0,2.0,2.0,8.0,100.0,50.0,68.02,74.41,2.68,,2.0,0.5,5.0,4.0,29.0,20.0,1.0,5.0,3.0,4.0,5.0,2.0,5.0,2.0,5.0,1.0,5.0,1.0,5.0,1.0,5.0,3.0,5.0,66.0,1998.0,1.0,FR,0.0,1.0,4.0,2.0,,1.0
cf9sd7cr,leem7,rpejdnjv,3,,0,rpejdnjv_1,,0,5.0,15.0,,,,,,,,251.0,rpejdnjv_6,0.0,8.0,8.0,8.0,0.0,0.0,92.5,55.833,7.815,6.0,2.0,0.0,100.0,50.0,68.02,63.26,2.76,,200.0,0.5,3.0,9.0,15.0,10.0,0.0,1.0,5.0,2.0,5.0,2.0,5.0,1.0,5.0,2.0,5.0,1.0,5.0,1.0,3.0,2.0,5.0,69.0,1996.0,0.0,FR,0.0,1.0,5.0,26.0,,1.0
d3a3pcnp,leem15,rpejdnjv,3,,0,rpejdnjv_3,,0,7.0,22.0,,,,,,,,181.0,rpejdnjv_5,0.0,8.0,8.0,8.0,0.0,0.0,92.5,55.833,7.815,6.0,1.0,0.0,100.0,50.0,68.02,78.35,2.48,,2.0,0.25,5.0,4.0,15.0,20.0,0.0,6.0,3.0,3.0,4.0,3.0,5.0,4.0,4.0,1.0,4.0,1.0,4.0,1.0,4.0,3.0,5.0,59.0,1994.0,0.0,FR,0.0,0.0,5.0,2.0,5.0,1.0
lwd3fp9l,leem18,rpejdnjv,3,,0,rpejdnjv_6,,1,8.0,21.0,,,,,,,,204.0,rpejdnjv_2,0.0,8.0,8.0,8.0,0.0,0.0,92.5,55.833,7.815,5.0,2.0,0.0,100.0,50.0,68.02,64.76,2.84,,200.0,0.5,3.0,18.0,15.0,20.0,0.0,2.0,4.0,4.0,4.0,4.0,4.0,4.0,3.0,4.0,4.0,4.0,3.0,4.0,4.0,3.0,4.0,45.0,1994.0,1.0,FR,2.0,1.0,5.0,7.0,,1.0
z6p7eajj,leem14,rpejdnjv,3,,0,rpejdnjv_2,,0,4.0,18.0,,,,,,,,204.0,rpejdnjv_4,0.0,8.0,5.0,4.0,4.0,2.0,82.667,69.667,31.05,2.0,2.0,8.0,100.0,50.0,68.02,63.54,2.78,,1.0,0.5,2.0,4.0,15.0,20.0,2.0,2.0,4.0,3.0,4.0,4.0,5.0,4.0,5.0,1.0,4.0,1.0,4.0,3.0,4.0,2.0,5.0,59.0,2002.0,0.0,FR,0.0,1.0,1.0,6.0,,1.0
eh6ljriq,leem10,rpejdnjv,3,,0,rpejdnjv_1,,1,6.0,15.0,,,,,,,,271.0,rpejdnjv_9,4.0,5.0,3.0,7.0,2.0,2.0,84.5,54.833,7.974,3.0,1.0,3.0,63.0,94.0,68.02,51.44,2.17,,200.0,0.5,3.0,9.0,30.0,10.0,1.0,0.0,3.0,2.0,4.0,4.0,4.0,4.0,5.0,1.0,4.0,4.0,2.0,4.0,4.0,5.0,4.0,48.0,1994.0,0.0,DZ,0.0,1.0,5.0,16.0,,1.0
vmt5487m,leem17,rpejdnjv,3,,0,rpejdnjv_4,,1,7.0,22.0,,,,,,,,181.0,rpejdnjv_3,4.0,8.0,8.0,8.0,0.0,0.0,92.5,50.0,0.0,5.0,1.0,0.0,100.0,50.0,68.02,72.5,2.78,,200.0,10.0,2.0,4.0,8.0,1.0,0.0,2.0,1.0,2.0,3.0,3.0,1.0,1.0,3.0,1.0,2.0,1.0,1.0,1.0,1.0,4.0,5.0,46.0,2000.0,0.0,FR,0.0,1.0,3.0,15.0,,1.0
5jr55zaa,leem3,rpejdnjv,3,,0,rpejdnjv_1,,0,4.0,15.0,,,,,,,,231.0,rpejdnjv_8,0.0,8.0,8.0,3.0,0.0,8.0,86.333,70.5,29.433,3.0,2.0,8.0,85.0,85.0,68.02,58.24,2.51,,2.0,0.5,3.0,6.0,30.0,20.0,0.0,3.0,4.0,2.0,5.0,1.0,5.0,1.0,5.0,2.0,5.0,1.0,4.0,2.0,5.0,1.0,5.0,70.0,1996.0,0.0,FR,0.0,1.0,5.0,26.0,,1.0
nwik6h47,leem13,rpejdnjv,3,,0,rpejdnjv_5,,0,8.0,17.0,,,,,,,,276.0,rpejdnjv_7,0.0,8.0,8.0,8.0,4.0,8.0,85.833,65.833,23.838,5.0,2.0,0.0,100.0,50.0,68.02,75.63,2.62,,400.0,0.5,1.0,9.0,15.0,10.0,0.0,1.0,3.0,4.0,4.0,5.0,4.0,4.0,4.0,4.0,5.0,3.0,4.0,4.0,4.0,4.0,4.0,46.0,1997.0,1.0,FR,0.0,1.0,5.0,15.0,,1.0
zck3obfr,leem5,rpejdnjv,4,,0,rpejdnjv_5,,1,6.0,22.0,,,,,,,,177.0,rpejdnjv_5,0.0,8.0,8.0,3.0,4.0,8.0,82.167,74.667,37.482,6.0,1.0,0.0,100.0,50.0,77.42,83.78,2.68,,2.0,0.25,5.0,12.0,30.0,10.0,0.0,4.0,3.0,2.0,3.0,3.0,5.0,3.0,5.0,2.0,5.0,2.0,3.0,1.0,4.0,2.0,3.0,58.0,1994.0,1.0,FR,0.0,1.0,6.0,17.0,,1.0
nkp7u01x,leem11,rpejdnjv,4,,0,rpejdnjv_3,,0,5.0,18.0,,,,,,,,217.0,rpejdnjv_9,0.0,8.0,8.0,7.0,0.0,0.0,91.833,57.667,10.386,3.0,1.0,3.0,63.0,94.0,77.42,73.73,2.82,,200.0,0.5,3.0,9.0,29.0,10.0,0.0,2.0,4.0,4.0,5.0,4.0,5.0,5.0,5.0,1.0,4.0,3.0,4.0,1.0,5.0,1.0,3.0,58.0,2000.0,0.0,BI,0.0,1.0,3.0,6.0,,1.0
pvcmlcbn,leem1,rpejdnjv,4,,0,rpejdnjv_6,,1,4.0,16.0,,,,,,,,222.0,rpejdnjv_3,0.0,8.0,8.0,5.0,0.0,8.0,87.833,67.0,24.196,5.0,1.0,0.0,100.0,50.0,77.42,79.98,2.87,,400.0,0.5,5.0,4.0,29.0,20.0,0.0,5.0,4.0,4.0,5.0,4.0,4.0,1.0,5.0,1.0,5.0,4.0,4.0,1.0,4.0,1.0,4.0,61.0,1999.0,1.0,DZ,0.0,1.0,2.0,12.0,,1.0
2nz72whh,leem4,rpejdnjv,4,,0,rpejdnjv_2,,0,6.0,17.0,,,,,,,,244.0,rpejdnjv_7,0.0,8.0,8.0,8.0,0.0,0.0,92.5,55.833,7.815,5.0,2.0,0.0,100.0,50.0,77.42,75.22,2.89,,2.0,0.25,5.0,3.0,31.0,0.0,0.0,4.0,2.0,3.0,3.0,3.0,4.0,2.0,5.0,5.0,5.0,2.0,4.0,3.0,4.0,2.0,3.0,52.0,1995.0,1.0,FR,0.0,1.0,3.0,6.0,,1.0
ya5a8sr3,leem9,rpejdnjv,4,,0,rpejdnjv_4,,0,6.0,22.0,,,,,,,,177.0,rpejdnjv_6,1.0,8.0,8.0,8.0,0.0,0.0,92.5,54.333,5.821,6.0,2.0,0.0,100.0,50.0,77.42,77.39,3.0,,400.0,0.5,3.0,6.0,15.0,10.0,0.0,1.0,3.0,1.0,5.0,5.0,5.0,5.0,4.0,2.0,5.0,1.0,3.0,3.0,4.0,3.0,5.0,56.0,1998.0,0.0,HT,0.0,1.0,2.0,0.0,,1.0
weolk6ul,leem16,rpejdnjv,4,,0,rpejdnjv_3,,0,6.0,18.0,,,,,,,,231.0,rpejdnjv_2,0.0,8.0,8.0,3.0,0.0,3.0,87.833,66.833,23.986,5.0,2.0,0.0,100.0,50.0,77.42,77.12,2.99,,200.0,0.5,8.0,6.0,15.0,20.0,0.0,2.0,5.0,2.0,5.0,1.0,5.0,5.0,5.0,5.0,5.0,1.0,4.0,2.0,2.0,3.0,5.0,59.0,1998.0,0.0,MA,0.0,1.0,5.0,11.0,,1.0
7kvnqzhv,leem8,rpejdnjv,4,,0,rpejdnjv_2,,1,4.0,17.0,,,,,,,,213.0,rpejdnjv_8,0.0,8.0,8.0,3.0,4.0,5.0,83.167,72.5,34.152,3.0,2.0,8.0,85.0,85.0,77.42,67.34,2.5,,200.0,0.5,3.0,9.0,30.0,10.0,0.0,1.0,4.0,4.0,5.0,5.0,4.0,5.0,5.0,4.0,5.0,3.0,2.0,4.0,5.0,5.0,4.0,46.0,1995.0,0.0,BJ,0.0,1.0,3.0,8.0,,0.0
ybkwbvii,leem6,rpejdnjv,4,,0,rpejdnjv_5,,0,6.0,22.0,,,,,,,,177.0,rpejdnjv_10,0.0,8.0,8.0,8.0,0.0,0.0,92.5,55.833,7.815,3.0,2.0,8.0,85.0,85.0,77.42,0.0,0.0,,60.0,5.5,2.0,2.0,30.0,10.0,0.0,1.0,3.0,2.0,4.0,4.0,4.0,5.0,5.0,2.0,4.0,3.0,4.0,2.0,4.0,4.0,5.0,53.0,1995.0,0.0,IT,0.0,1.0,5.0,6.0,,1.0
emg0d2w7,leem2,rpejdnjv,4,,0,rpejdnjv_6,,0,8.0,16.0,,,,,,,,294.0,rpejdnjv_10,0.0,8.0,8.0,6.0,0.0,5.0,89.5,63.0,18.217,3.0,2.0,8.0,85.0,85.0,77.42,79.84,2.88,,200.0,0.5,3.0,12.0,30.0,20.0,2.0,1.0,2.0,2.0,5.0,5.0,5.0,5.0,5.0,2.0,4.0,2.0,4.0,2.0,4.0,3.0,4.0,54.0,1992.0,0.0,CD,0.0,1.0,5.0,6.0,,1.0
wg2u2li2,leem12,rpejdnjv,4,,0,rpejdnjv_4,,1,6.0,22.0,,,,,,,,177.0,rpejdnjv_4,0.0,8.0,8.0,0.0,4.0,8.0,80.0,80.0,45.0,2.0,2.0,8.0,100.0,50.0,77.42,76.85,2.97,,2.0,0.5,5.0,4.0,29.0,20.0,1.0,5.0,3.0,4.0,5.0,2.0,5.0,2.0,5.0,1.0,5.0,1.0,5.0,1.0,5.0,3.0,5.0,66.0,1998.0,1.0,FR,0.0,1.0,4.0,2.0,,1.0
cf9sd7cr,leem7,rpejdnjv,4,,0,rpejdnjv_1,,0,5.0,17.0,,,,,,,,228.0,rpejdnjv_6,0.0,8.0,8.0,8.0,0.0,0.0,92.5,55.833,7.815,6.0,2.0,0.0,100.0,50.0,77.42,79.03,2.92,,200.0,0.5,3.0,9.0,15.0,10.0,0.0,1.0,5.0,2.0,5.0,2.0,5.0,1.0,5.0,2.0,5.0,1.0,5.0,1.0,3.0,2.0,5.0,69.0,1996.0,0.0,FR,0.0,1.0,5.0,26.0,,1.0
d3a3pcnp,leem15,rpejdnjv,4,,0,rpejdnjv_3,,1,7.0,18.0,,,,,,,,244.0,rpejdnjv_5,0.0,8.0,8.0,8.0,0.0,0.0,92.5,55.833,7.815,6.0,1.0,0.0,100.0,50.0,77.42,86.09,2.57,,2.0,0.25,5.0,4.0,15.0,20.0,0.0,6.0,3.0,3.0,4.0,3.0,5.0,4.0,4.0,1.0,4.0,1.0,4.0,1.0,4.0,3.0,5.0,59.0,1994.0,0.0,FR,0.0,0.0,5.0,2.0,5.0,1.0
lwd3fp9l,leem18,rpejdnjv,4,,0,rpejdnjv_6,,0,4.0,16.0,,,,,,,,222.0,rpejdnjv_2,0.0,8.0,8.0,8.0,0.0,0.0,92.5,55.833,7.815,5.0,2.0,0.0,100.0,50.0,77.42,72.64,2.76,,200.0,0.5,3.0,18.0,15.0,20.0,0.0,2.0,4.0,4.0,4.0,4.0,4.0,4.0,3.0,4.0,4.0,4.0,3.0,4.0,4.0,3.0,4.0,45.0,1994.0,1.0,FR,2.0,1.0,5.0,7.0,,1.0
z6p7eajj,leem14,rpejdnjv,4,,0,rpejdnjv_2,,0,7.0,17.0,,,,,,,,260.0,rpejdnjv_4,0.0,8.0,5.0,4.0,4.0,2.0,82.667,69.667,31.05,2.0,2.0,8.0,100.0,50.0,77.42,79.3,2.91,,1.0,0.5,2.0,4.0,15.0,20.0,2.0,2.0,4.0,3.0,4.0,4.0,5.0,4.0,5.0,1.0,4.0,1.0,4.0,3.0,4.0,2.0,5.0,59.0,2002.0,0.0,FR,0.0,1.0,1.0,6.0,,1.0
eh6ljriq,leem10,rpejdnjv,4,,0,rpejdnjv_1,,1,6.0,17.0,,,,,,,,244.0,rpejdnjv_9,4.0,5.0,3.0,7.0,2.0,2.0,84.5,54.833,7.974,3.0,1.0,3.0,63.0,94.0,77.42,72.1,2.73,,200.0,0.5,3.0,9.0,30.0,10.0,1.0,0.0,3.0,2.0,4.0,4.0,4.0,4.0,5.0,1.0,4.0,4.0,2.0,4.0,4.0,5.0,4.0,48.0,1994.0,0.0,DZ,0.0,1.0,5.0,16.0,,1.0
vmt5487m,leem17,rpejdnjv,4,,0,rpejdnjv_4,,0,10.0,22.0,,,,,,,,195.0,rpejdnjv_3,4.0,8.0,8.0,8.0,0.0,0.0,92.5,50.0,0.0,5.0,1.0,0.0,100.0,50.0,77.42,78.07,2.97,,200.0,10.0,2.0,4.0,8.0,1.0,0.0,2.0,1.0,2.0,3.0,3.0,1.0,1.0,3.0,1.0,2.0,1.0,1.0,1.0,1.0,4.0,5.0,46.0,2000.0,0.0,FR,0.0,1.0,3.0,15.0,,1.0
5jr55zaa,leem3,rpejdnjv,4,,0,rpejdnjv_1,,0,6.0,17.0,,,,,,,,244.0,rpejdnjv_8,0.0,8.0,8.0,3.0,0.0,8.0,86.333,70.5,29.433,3.0,2.0,8.0,85.0,85.0,77.42,69.38,2.6,,2.0,0.5,3.0,6.0,30.0,20.0,0.0,3.0,4.0,2.0,5.0,1.0,5.0,1.0,5.0,2.0,5.0,1.0,4.0,2.0,5.0,1.0,5.0,70.0,1996.0,0.0,FR,0.0,1.0,5.0,26.0,,1.0
nwik6h47,leem13,rpejdnjv,4,,0,rpejdnjv_5,,0,10.0,22.0,,,,,,,,195.0,rpejdnjv_7,0.0,8.0,8.0,8.0,4.0,8.0,85.833,65.833,23.838,5.0,2.0,0.0,100.0,50.0,77.42,84.87,2.63,,400.0,0.5,1.0,9.0,15.0,10.0,0.0,1.0,3.0,4.0,4.0,5.0,4.0,4.0,4.0,4.0,5.0,3.0,4.0,4.0,4.0,4.0,4.0,46.0,1997.0,1.0,FR,0.0,1.0,5.0,15.0,,1.0
zck3obfr,leem5,rpejdnjv,5,,0,rpejdnjv_5,,0,4.0,18.0,,,,,,,,204.0,rpejdnjv_5,0.0,8.0,8.0,3.0,4.0,8.0,82.167,74.667,37.482,6.0,1.0,0.0,100.0,50.0,47.95,48.05,3.0,,2.0,0.25,5.0,12.0,30.0,10.0,0.0,4.0,3.0,2.0,3.0,3.0,5.0,3.0,5.0,2.0,5.0,2.0,3.0,1.0,4.0,2.0,3.0,58.0,1994.0,1.0,FR,0.0,1.0,6.0,17.0,,1.0
nkp7u01x,leem11,rpejdnjv,5,,0,rpejdnjv_3,,0,6.0,17.0,,,,,,,,244.0,rpejdnjv_9,0.0,8.0,8.0,7.0,0.0,0.0,91.833,57.667,10.386,3.0,1.0,3.0,63.0,94.0,47.95,50.36,2.88,,200.0,0.5,3.0,9.0,29.0,10.0,0.0,2.0,4.0,4.0,5.0,4.0,5.0,5.0,5.0,1.0,4.0,3.0,4.0,1.0,5.0,1.0,3.0,58.0,2000.0,0.0,BI,0.0,1.0,3.0,6.0,,1.0
pvcmlcbn,leem1,rpejdnjv,5,,0,rpejdnjv_6,,0,5.0,22.0,,,,,,,,172.0,rpejdnjv_3,0.0,8.0,8.0,5.0,0.0,8.0,87.833,67.0,24.196,5.0,1.0,0.0,100.0,50.0,47.95,48.32,2.98,,400.0,0.5,5.0,4.0,29.0,20.0,0.0,5.0,4.0,4.0,5.0,4.0,4.0,1.0,5.0,1.0,5.0,4.0,4.0,1.0,4.0,1.0,4.0,61.0,1999.0,1.0,DZ,0.0,1.0,2.0,12.0,,1.0
2nz72whh,leem4,rpejdnjv,5,,0,rpejdnjv_2,,0,7.0,17.0,,,,,,,,260.0,rpejdnjv_7,0.0,8.0,8.0,8.0,0.0,0.0,92.5,55.833,7.815,5.0,2.0,0.0,100.0,50.0,47.95,48.05,3.0,,2.0,0.25,5.0,3.0,31.0,0.0,0.0,4.0,2.0,3.0,3.0,3.0,4.0,2.0,5.0,5.0,5.0,2.0,4.0,3.0,4.0,2.0,3.0,52.0,1995.0,1.0,FR,0.0,1.0,3.0,6.0,,1.0
ya5a8sr3,leem9,rpejdnjv,5,,0,rpejdnjv_4,,0,4.0,14.0,,,,,,,,240.0,rpejdnjv_6,1.0,8.0,8.0,8.0,0.0,0.0,92.5,54.333,5.821,6.0,2.0,0.0,100.0,50.0,47.95,46.82,2.94,,400.0,0.5,3.0,6.0,15.0,10.0,0.0,1.0,3.0,1.0,5.0,5.0,5.0,5.0,4.0,2.0,5.0,1.0,3.0,3.0,4.0,3.0,5.0,56.0,1998.0,0.0,HT,0.0,1.0,2.0,0.0,,1.0
weolk6ul,leem16,rpejdnjv,5,,0,rpejdnjv_3,,0,5.0,17.0,,,,,,,,228.0,rpejdnjv_2,0.0,8.0,8.0,3.0,0.0,3.0,87.833,66.833,23.986,5.0,2.0,0.0,100.0,50.0,47.95,50.9,2.85,,200.0,0.5,8.0,6.0,15.0,20.0,0.0,2.0,5.0,2.0,5.0,1.0,5.0,5.0,5.0,5.0,5.0,1.0,4.0,2.0,2.0,3.0,5.0,59.0,1998.0,0.0,MA,0.0,1.0,5.0,11.0,,1.0
7kvnqzhv,leem8,rpejdnjv,5,,0,rpejdnjv_2,,1,5.0,17.0,,,,,,,,228.0,rpejdnjv_8,0.0,8.0,8.0,3.0,4.0,5.0,83.167,72.5,34.152,3.0,2.0,8.0,85.0,85.0,47.95,48.86,2.95,,200.0,0.5,3.0,9.0,30.0,10.0,0.0,1.0,4.0,4.0,5.0,5.0,4.0,5.0,5.0,4.0,5.0,3.0,2.0,4.0,5.0,5.0,4.0,46.0,1995.0,0.0,BJ,0.0,1.0,3.0,8.0,,0.0
ybkwbvii,leem6,rpejdnjv,5,,0,rpejdnjv_5,,1,8.0,18.0,,,,,,,,258.0,rpejdnjv_10,0.0,8.0,8.0,8.0,0.0,0.0,92.5,55.833,7.815,3.0,2.0,8.0,85.0,85.0,47.95,36.63,2.43,,60.0,5.5,2.0,2.0,30.0,10.0,0.0,1.0,3.0,2.0,4.0,4.0,4.0,5.0,5.0,2.0,4.0,3.0,4.0,2.0,4.0,4.0,5.0,53.0,1995.0,0.0,IT,0.0,1.0,5.0,6.0,,1.0
emg0d2w7,leem2,rpejdnjv,5,,0,rpejdnjv_6,,1,7.0,22.0,,,,,,,,181.0,rpejdnjv_10,0.0,8.0,8.0,6.0,0.0,5.0,89.5,63.0,18.217,3.0,2.0,8.0,85.0,85.0,47.95,48.05,3.0,,200.0,0.5,3.0,12.0,30.0,20.0,2.0,1.0,2.0,2.0,5.0,5.0,5.0,5.0,5.0,2.0,4.0,2.0,4.0,2.0,4.0,3.0,4.0,54.0,1992.0,0.0,CD,0.0,1.0,5.0,6.0,,1.0
wg2u2li2,leem12,rpejdnjv,5,,0,rpejdnjv_4,,0,4.0,14.0,,,,,,,,240.0,rpejdnjv_4,0.0,8.0,8.0,0.0,4.0,8.0,80.0,80.0,45.0,2.0,2.0,8.0,100.0,50.0,47.95,51.31,2.83,,2.0,0.5,5.0,4.0,29.0,20.0,1.0,5.0,3.0,4.0,5.0,2.0,5.0,2.0,5.0,1.0,5.0,1.0,5.0,1.0,5.0,3.0,5.0,66.0,1998.0,1.0,FR,0.0,1.0,4.0,2.0,,1.0
cf9sd7cr,leem7,rpejdnjv,5,,0,rpejdnjv_1,,0,6.0,19.0,,,,,,,,217.0,rpejdnjv_6,0.0,8.0,8.0,8.0,0.0,0.0,92.5,55.833,7.815,6.0,2.0,0.0,100.0,50.0,47.95,50.49,2.87,,200.0,0.5,3.0,9.0,15.0,10.0,0.0,1.0,5.0,2.0,5.0,2.0,5.0,1.0,5.0,2.0,5.0,1.0,5.0,1.0,3.0,2.0,5.0,69.0,1996.0,0.0,FR,0.0,1.0,5.0,26.0,,1.0
d3a3pcnp,leem15,rpejdnjv,5,,0,rpejdnjv_3,,1,6.0,17.0,,,,,,,,244.0,rpejdnjv_5,0.0,8.0,8.0,8.0,0.0,0.0,92.5,55.833,7.815,6.0,1.0,0.0,100.0,50.0,47.95,51.58,2.82,,2.0,0.25,5.0,4.0,15.0,20.0,0.0,6.0,3.0,3.0,4.0,3.0,5.0,4.0,4.0,1.0,4.0,1.0,4.0,1.0,4.0,3.0,5.0,59.0,1994.0,0.0,FR,0.0,0.0,5.0,2.0,5.0,1.0
lwd3fp9l,leem18,rpejdnjv,5,,0,rpejdnjv_6,,0,10.0,22.0,,,,,,,,195.0,rpejdnjv_2,0.0,8.0,8.0,8.0,0.0,0.0,92.5,55.833,7.815,5.0,2.0,0.0,100.0,50.0,47.95,42.07,2.71,,200.0,0.5,3.0,18.0,15.0,20.0,0.0,2.0,4.0,4.0,4.0,4.0,4.0,4.0,3.0,4.0,4.0,4.0,3.0,4.0,4.0,3.0,4.0,45.0,1994.0,1.0,FR,2.0,1.0,5.0,7.0,,1.0
z6p7eajj,leem14,rpejdnjv,5,,0,rpejdnjv_2,,0,5.0,17.0,,,,,,,,228.0,rpejdnjv_4,0.0,8.0,5.0,4.0,4.0,2.0,82.667,69.667,31.05,2.0,2.0,8.0,100.0,50.0,47.95,48.05,3.0,,1.0,0.5,2.0,4.0,15.0,20.0,2.0,2.0,4.0,3.0,4.0,4.0,5.0,4.0,5.0,1.0,4.0,1.0,4.0,3.0,4.0,2.0,5.0,59.0,2002.0,0.0,FR,0.0,1.0,1.0,6.0,,1.0
eh6ljriq,leem10,rpejdnjv,5,,0,rpejdnjv_1,,0,9.0,19.0,,,,,,,,251.0,rpejdnjv_9,4.0,5.0,3.0,7.0,2.0,2.0,84.5,54.833,7.974,3.0,1.0,3.0,63.0,94.0,47.95,49.41,2.93,,200.0,0.5,3.0,9.0,30.0,10.0,1.0,0.0,3.0,2.0,4.0,4.0,4.0,4.0,5.0,1.0,4.0,4.0,2.0,4.0,4.0,5.0,4.0,48.0,1994.0,0.0,DZ,0.0,1.0,5.0,16.0,,1.0
vmt5487m,leem17,rpejdnjv,5,,0,rpejdnjv_4,,1,6.0,14.0,,,,,,,,285.0,rpejdnjv_3,4.0,8.0,8.0,8.0,0.0,0.0,92.5,50.0,0.0,5.0,1.0,0.0,100.0,50.0,47.95,49.54,2.92,,200.0,10.0,2.0,4.0,8.0,1.0,0.0,2.0,1.0,2.0,3.0,3.0,1.0,1.0,3.0,1.0,2.0,1.0,1.0,1.0,1.0,4.0,5.0,46.0,2000.0,0.0,FR,0.0,1.0,3.0,15.0,,1.0
5jr55zaa,leem3,rpejdnjv,5,,0,rpejdnjv_1,,1,4.0,19.0,,,,,,,,195.0,rpejdnjv_8,0.0,8.0,8.0,3.0,0.0,8.0,86.333,70.5,29.433,3.0,2.0,8.0,85.0,85.0,47.95,46.28,2.92,,2.0,0.5,3.0,6.0,30.0,20.0,0.0,3.0,4.0,2.0,5.0,1.0,5.0,1.0,5.0,2.0,5.0,1.0,4.0,2.0,5.0,1.0,5.0,70.0,1996.0,0.0,FR,0.0,1.0,5.0,26.0,,1.0
nwik6h47,leem13,rpejdnjv,5,,0,rpejdnjv_5,,0,6.0,18.0,,,,,,,,231.0,rpejdnjv_7,0.0,8.0,8.0,8.0,4.0,8.0,85.833,65.833,23.838,5.0,2.0,0.0,100.0,50.0,47.95,50.49,2.87,,400.0,0.5,1.0,9.0,15.0,10.0,0.0,1.0,3.0,4.0,4.0,5.0,4.0,4.0,4.0,4.0,5.0,3.0,4.0,4.0,4.0,4.0,4.0,46.0,1997.0,1.0,FR,0.0,1.0,5.0,15.0,,1.0
zck3obfr,leem5,rpejdnjv,6,,0,rpejdnjv_5,,0,4.0,22.0,,,,,,,,168.0,rpejdnjv_5,0.0,8.0,8.0,3.0,4.0,8.0,82.167,74.667,37.482,6.0,1.0,0.0,100.0,50.0,16.33,5.11,2.44,,2.0,0.25,5.0,12.0,30.0,10.0,0.0,4.0,3.0,2.0,3.0,3.0,5.0,3.0,5.0,2.0,5.0,2.0,3.0,1.0,4.0,2.0,3.0,58.0,1994.0,1.0,FR,0.0,1.0,6.0,17.0,,1.0
nkp7u01x,leem11,rpejdnjv,6,,0,rpejdnjv_3,,0,6.0,19.0,,,,,,,,217.0,rpejdnjv_9,0.0,8.0,8.0,7.0,0.0,0.0,91.833,57.667,10.386,3.0,1.0,3.0,63.0,94.0,16.33,13.26,2.85,,200.0,0.5,3.0,9.0,29.0,10.0,0.0,2.0,4.0,4.0,5.0,4.0,5.0,5.0,5.0,1.0,4.0,3.0,4.0,1.0,5.0,1.0,3.0,58.0,2000.0,0.0,BI,0.0,1.0,3.0,6.0,,1.0
pvcmlcbn,leem1,rpejdnjv,6,,0,rpejdnjv_6,,0,3.0,21.0,,,,,,,,170.0,rpejdnjv_3,0.0,8.0,8.0,5.0,0.0,8.0,87.833,67.0,24.196,5.0,1.0,0.0,100.0,50.0,16.33,15.17,2.94,,400.0,0.5,5.0,4.0,29.0,20.0,0.0,5.0,4.0,4.0,5.0,4.0,4.0,1.0,5.0,1.0,5.0,4.0,4.0,1.0,4.0,1.0,4.0,61.0,1999.0,1.0,DZ,0.0,1.0,2.0,12.0,,1.0
2nz72whh,leem4,rpejdnjv,6,,0,rpejdnjv_2,,1,5.0,16.0,,,,,,,,240.0,rpejdnjv_7,0.0,8.0,8.0,8.0,0.0,0.0,92.5,55.833,7.815,5.0,2.0,0.0,100.0,50.0,16.33,9.19,2.64,,2.0,0.25,5.0,3.0,31.0,0.0,0.0,4.0,2.0,3.0,3.0,3.0,4.0,2.0,5.0,5.0,5.0,2.0,4.0,3.0,4.0,2.0,3.0,52.0,1995.0,1.0,FR,0.0,1.0,3.0,6.0,,1.0
ya5a8sr3,leem9,rpejdnjv,6,,0,rpejdnjv_4,,1,5.0,18.0,,,,,,,,217.0,rpejdnjv_6,1.0,8.0,8.0,8.0,0.0,0.0,92.5,54.333,5.821,6.0,2.0,0.0,100.0,50.0,16.33,18.02,2.92,,400.0,0.5,3.0,6.0,15.0,10.0,0.0,1.0,3.0,1.0,5.0,5.0,5.0,5.0,4.0,2.0,5.0,1.0,3.0,3.0,4.0,3.0,5.0,56.0,1998.0,0.0,HT,0.0,1.0,2.0,0.0,,1.0
weolk6ul,leem16,rpejdnjv,6,,0,rpejdnjv_3,,0,8.0,19.0,,,,,,,,240.0,rpejdnjv_2,0.0,8.0,8.0,3.0,0.0,3.0,87.833,66.833,23.986,5.0,2.0,0.0,100.0,50.0,16.33,17.07,2.96,,200.0,0.5,8.0,6.0,15.0,20.0,0.0,2.0,5.0,2.0,5.0,1.0,5.0,5.0,5.0,5.0,5.0,1.0,4.0,2.0,2.0,3.0,5.0,59.0,1998.0,0.0,MA,0.0,1.0,5.0,11.0,,1.0
7kvnqzhv,leem8,rpejdnjv,6,,0,rpejdnjv_2,,0,3.0,16.0,,,,,,,,204.0,rpejdnjv_8,0.0,8.0,8.0,3.0,4.0,5.0,83.167,72.5,34.152,3.0,2.0,8.0,85.0,85.0,16.33,12.86,2.83,,200.0,0.5,3.0,9.0,30.0,10.0,0.0,1.0,4.0,4.0,5.0,5.0,4.0,5.0,5.0,4.0,5.0,3.0,2.0,4.0,5.0,5.0,4.0,46.0,1995.0,0.0,BJ,0.0,1.0,3.0,8.0,,0.0
ybkwbvii,leem6,rpejdnjv,6,,0,rpejdnjv_5,,1,10.0,22.0,,,,,,,,195.0,rpejdnjv_10,0.0,8.0,8.0,8.0,0.0,0.0,92.5,55.833,7.815,3.0,2.0,8.0,85.0,85.0,16.33,3.75,2.37,,60.0,5.5,2.0,2.0,30.0,10.0,0.0,1.0,3.0,2.0,4.0,4.0,4.0,5.0,5.0,2.0,4.0,3.0,4.0,2.0,4.0,4.0,5.0,53.0,1995.0,0.0,IT,0.0,1.0,5.0,6.0,,1.0
emg0d2w7,leem2,rpejdnjv,6,,0,rpejdnjv_6,,0,8.0,21.0,,,,,,,,204.0,rpejdnjv_10,0.0,8.0,8.0,6.0,0.0,5.0,89.5,63.0,18.217,3.0,2.0,8.0,85.0,85.0,16.33,59.19,0.86,,200.0,0.5,3.0,12.0,30.0,20.0,2.0,1.0,2.0,2.0,5.0,5.0,5.0,5.0,5.0,2.0,4.0,2.0,4.0,2.0,4.0,3.0,4.0,54.0,1992.0,0.0,CD,0.0,1.0,5.0,6.0,,1.0
wg2u2li2,leem12,rpejdnjv,6,,0,rpejdnjv_4,,0,5.0,18.0,,,,,,,,217.0,rpejdnjv_4,0.0,8.0,8.0,0.0,4.0,8.0,80.0,80.0,45.0,2.0,2.0,8.0,100.0,50.0,16.33,11.91,2.78,,2.0,0.5,5.0,4.0,29.0,20.0,1.0,5.0,3.0,4.0,5.0,2.0,5.0,2.0,5.0,1.0,5.0,1.0,5.0,1.0,5.0,3.0,5.0,66.0,1998.0,1.0,FR,0.0,1.0,4.0,2.0,,1.0
cf9sd7cr,leem7,rpejdnjv,6,,0,rpejdnjv_1,,0,5.0,17.0,,,,,,,,228.0,rpejdnjv_6,0.0,8.0,8.0,8.0,0.0,0.0,92.5,55.833,7.815,6.0,2.0,0.0,100.0,50.0,16.33,7.69,2.57,,200.0,0.5,3.0,9.0,15.0,10.0,0.0,1.0,5.0,2.0,5.0,2.0,5.0,1.0,5.0,2.0,5.0,1.0,5.0,1.0,3.0,2.0,5.0,69.0,1996.0,0.0,FR,0.0,1.0,5.0,26.0,,1.0
d3a3pcnp,leem15,rpejdnjv,6,,0,rpejdnjv_3,,1,5.0,19.0,,,,,,,,206.0,rpejdnjv_5,0.0,8.0,8.0,8.0,0.0,0.0,92.5,55.833,7.815,6.0,1.0,0.0,100.0,50.0,16.33,15.57,2.96,,2.0,0.25,5.0,4.0,15.0,20.0,0.0,6.0,3.0,3.0,4.0,3.0,5.0,4.0,4.0,1.0,4.0,1.0,4.0,1.0,4.0,3.0,5.0,59.0,1994.0,0.0,FR,0.0,0.0,5.0,2.0,5.0,1.0
lwd3fp9l,leem18,rpejdnjv,6,,0,rpejdnjv_6,,1,10.0,21.0,,,,,,,,217.0,rpejdnjv_2,0.0,8.0,8.0,8.0,0.0,0.0,92.5,55.833,7.815,5.0,2.0,0.0,100.0,50.0,16.33,8.64,2.62,,200.0,0.5,3.0,18.0,15.0,20.0,0.0,2.0,4.0,4.0,4.0,4.0,4.0,4.0,3.0,4.0,4.0,4.0,3.0,4.0,4.0,3.0,4.0,45.0,1994.0,1.0,FR,2.0,1.0,5.0,7.0,,1.0
z6p7eajj,leem14,rpejdnjv,6,,0,rpejdnjv_2,,0,8.0,16.0,,,,,,,,294.0,rpejdnjv_4,0.0,8.0,5.0,4.0,4.0,2.0,82.667,69.667,31.05,2.0,2.0,8.0,100.0,50.0,16.33,16.53,2.99,,1.0,0.5,2.0,4.0,15.0,20.0,2.0,2.0,4.0,3.0,4.0,4.0,5.0,4.0,5.0,1.0,4.0,1.0,4.0,3.0,4.0,2.0,5.0,59.0,2002.0,0.0,FR,0.0,1.0,1.0,6.0,,1.0
eh6ljriq,leem10,rpejdnjv,6,,0,rpejdnjv_1,,1,5.0,17.0,,,,,,,,228.0,rpejdnjv_9,4.0,5.0,3.0,7.0,2.0,2.0,84.5,54.833,7.974,3.0,1.0,3.0,63.0,94.0,16.33,14.08,2.89,,200.0,0.5,3.0,9.0,30.0,10.0,1.0,0.0,3.0,2.0,4.0,4.0,4.0,4.0,5.0,1.0,4.0,4.0,2.0,4.0,4.0,5.0,4.0,48.0,1994.0,0.0,DZ,0.0,1.0,5.0,16.0,,1.0
vmt5487m,leem17,rpejdnjv,6,,0,rpejdnjv_4,,0,8.0,18.0,,,,,,,,258.0,rpejdnjv_3,4.0,8.0,8.0,8.0,0.0,0.0,92.5,50.0,0.0,5.0,1.0,0.0,100.0,50.0,16.33,17.07,2.96,,200.0,10.0,2.0,4.0,8.0,1.0,0.0,2.0,1.0,2.0,3.0,3.0,1.0,1.0,3.0,1.0,2.0,1.0,1.0,1.0,1.0,4.0,5.0,46.0,2000.0,0.0,FR,0.0,1.0,3.0,15.0,,1.0
5jr55zaa,leem3,rpejdnjv,6,,0,rpejdnjv_1,,0,7.0,17.0,,,,,,,,260.0,rpejdnjv_8,0.0,8.0,8.0,3.0,0.0,8.0,86.333,70.5,29.433,3.0,2.0,8.0,85.0,85.0,16.33,24.41,2.6,,2.0,0.5,3.0,6.0,30.0,20.0,0.0,3.0,4.0,2.0,5.0,1.0,5.0,1.0,5.0,2.0,5.0,1.0,4.0,2.0,5.0,1.0,5.0,70.0,1996.0,0.0,FR,0.0,1.0,5.0,26.0,,1.0
nwik6h47,leem13,rpejdnjv,6,,0,rpejdnjv_5,,0,8.0,22.0,,,,,,,,186.0,rpejdnjv_7,0.0,8.0,8.0,8.0,4.0,8.0,85.833,65.833,23.838,5.0,2.0,0.0,100.0,50.0,16.33,16.12,2.99,,400.0,0.5,1.0,9.0,15.0,10.0,0.0,1.0,3.0,4.0,4.0,5.0,4.0,4.0,4.0,4.0,5.0,3.0,4.0,4.0,4.0,4.0,4.0,46.0,1997.0,1.0,FR,0.0,1.0,5.0,15.0,,1.0
zck3obfr,leem5,rpejdnjv,7,,0,rpejdnjv_5,,0,4.0,15.0,,,,,,,,231.0,rpejdnjv_5,0.0,8.0,8.0,3.0,4.0,8.0,82.167,74.667,37.482,6.0,1.0,0.0,100.0,50.0,26.76,22.37,2.78,,2.0,0.25,5.0,12.0,30.0,10.0,0.0,4.0,3.0,2.0,3.0,3.0,5.0,3.0,5.0,2.0,5.0,2.0,3.0,1.0,4.0,2.0,3.0,58.0,1994.0,1.0,FR,0.0,1.0,6.0,17.0,,1.0
nkp7u01x,leem11,rpejdnjv,7,,0,rpejdnjv_3,,0,6.0,19.0,,,,,,,,217.0,rpejdnjv_9,0.0,8.0,8.0,7.0,0.0,0.0,91.833,57.667,10.386,3.0,1.0,3.0,63.0,94.0,26.76,20.74,2.7,,200.0,0.5,3.0,9.0,29.0,10.0,0.0,2.0,4.0,4.0,5.0,4.0,5.0,5.0,5.0,1.0,4.0,3.0,4.0,1.0,5.0,1.0,3.0,58.0,2000.0,0.0,BI,0.0,1.0,3.0,6.0,,1.0
pvcmlcbn,leem1,rpejdnjv,7,,0,rpejdnjv_6,,0,8.0,25.0,,,,,,,,132.0,rpejdnjv_3,0.0,8.0,8.0,5.0,0.0,8.0,87.833,67.0,24.196,5.0,1.0,0.0,100.0,50.0,26.76,23.45,2.83,,400.0,0.5,5.0,4.0,29.0,20.0,0.0,5.0,4.0,4.0,5.0,4.0,4.0,1.0,5.0,1.0,5.0,4.0,4.0,1.0,4.0,1.0,4.0,61.0,1999.0,1.0,DZ,0.0,1.0,2.0,12.0,,1.0
2nz72whh,leem4,rpejdnjv,7,,0,rpejdnjv_2,,0,5.0,17.0,,,,,,,,228.0,rpejdnjv_7,0.0,8.0,8.0,8.0,0.0,0.0,92.5,55.833,7.815,5.0,2.0,0.0,100.0,50.0,26.76,25.22,2.92,,2.0,0.25,5.0,3.0,31.0,0.0,0.0,4.0,2.0,3.0,3.0,3.0,4.0,2.0,5.0,5.0,5.0,2.0,4.0,3.0,4.0,2.0,3.0,52.0,1995.0,1.0,FR,0.0,1.0,3.0,6.0,,1.0
ya5a8sr3,leem9,rpejdnjv,7,,0,rpejdnjv_4,,0,7.0,25.0,,,,,,,,134.0,rpejdnjv_6,1.0,8.0,8.0,8.0,0.0,0.0,92.5,54.333,5.821,6.0,2.0,0.0,100.0,50.0,26.76,27.39,2.97,,400.0,0.5,3.0,6.0,15.0,10.0,0.0,1.0,3.0,1.0,5.0,5.0,5.0,5.0,4.0,2.0,5.0,1.0,3.0,3.0,4.0,3.0,5.0,56.0,1998.0,0.0,HT,0.0,1.0,2.0,0.0,,1.0
weolk6ul,leem16,rpejdnjv,7,,0,rpejdnjv_3,,0,6.0,19.0,,,,,,,,217.0,rpejdnjv_2,0.0,8.0,8.0,3.0,0.0,3.0,87.833,66.833,23.986,5.0,2.0,0.0,100.0,50.0,26.76,23.59,2.84,,200.0,0.5,8.0,6.0,15.0,20.0,0.0,2.0,5.0,2.0,5.0,1.0,5.0,5.0,5.0,5.0,5.0,1.0,4.0,2.0,2.0,3.0,5.0,59.0,1998.0,0.0,MA,0.0,1.0,5.0,11.0,,1.0
7kvnqzhv,leem8,rpejdnjv,7,,0,rpejdnjv_2,,1,8.0,17.0,,,,,,,,276.0,rpejdnjv_8,0.0,8.0,8.0,3.0,4.0,5.0,83.167,72.5,34.152,3.0,2.0,8.0,85.0,85.0,26.76,16.39,2.48,,200.0,0.5,3.0,9.0,30.0,10.0,0.0,1.0,4.0,4.0,5.0,5.0,4.0,5.0,5.0,4.0,5.0,3.0,2.0,4.0,5.0,5.0,4.0,46.0,1995.0,0.0,BJ,0.0,1.0,3.0,8.0,,0.0
ybkwbvii,leem6,rpejdnjv,7,,0,rpejdnjv_5,,1,3.0,15.0,,,,,,,,210.0,rpejdnjv_10,0.0,8.0,8.0,8.0,0.0,0.0,92.5,55.833,7.815,3.0,2.0,8.0,85.0,85.0,26.76,9.87,2.16,,60.0,5.5,2.0,2.0,30.0,10.0,0.0,1.0,3.0,2.0,4.0,4.0,4.0,5.0,5.0,2.0,4.0,3.0,4.0,2.0,4.0,4.0,5.0,53.0,1995.0,0.0,IT,0.0,1.0,5.0,6.0,,1.0
emg0d2w7,leem2,rpejdnjv,7,,0,rpejdnjv_6,,0,7.0,25.0,,,,,,,,134.0,rpejdnjv_10,0.0,8.0,8.0,6.0,0.0,5.0,89.5,63.0,18.217,3.0,2.0,8.0,85.0,85.0,26.76,86.63,0.01,,200.0,0.5,3.0,12.0,30.0,20.0,2.0,1.0,2.0,2.0,5.0,5.0,5.0,5.0,5.0,2.0,4.0,2.0,4.0,2.0,4.0,3.0,4.0,54.0,1992.0,0.0,CD,0.0,1.0,5.0,6.0,,1.0
wg2u2li2,leem12,rpejdnjv,7,,0,rpejdnjv_4,,0,9.0,25.0,,,,,,,,129.0,rpejdnjv_4,0.0,8.0,8.0,0.0,4.0,8.0,80.0,80.0,45.0,2.0,2.0,8.0,100.0,50.0,26.76,22.64,2.79,,2.0,0.5,5.0,4.0,29.0,20.0,1.0,5.0,3.0,4.0,5.0,2.0,5.0,2.0,5.0,1.0,5.0,1.0,5.0,1.0,5.0,3.0,5.0,66.0,1998.0,1.0,FR,0.0,1.0,4.0,2.0,,1.0
cf9sd7cr,leem7,rpejdnjv,7,,0,rpejdnjv_1,,0,4.0,12.0,,,,,,,,258.0,rpejdnjv_6,0.0,8.0,8.0,8.0,0.0,0.0,92.5,55.833,7.815,6.0,2.0,0.0,100.0,50.0,26.76,17.61,2.54,,200.0,0.5,3.0,9.0,15.0,10.0,0.0,1.0,5.0,2.0,5.0,2.0,5.0,1.0,5.0,2.0,5.0,1.0,5.0,1.0,3.0,2.0,5.0,69.0,1996.0,0.0,FR,0.0,1.0,5.0,26.0,,1.0
d3a3pcnp,leem15,rpejdnjv,7,,0,rpejdnjv_3,,1,7.0,19.0,,,,,,,,228.0,rpejdnjv_5,0.0,8.0,8.0,8.0,0.0,0.0,92.5,55.833,7.815,6.0,1.0,0.0,100.0,50.0,26.76,20.6,2.69,,2.0,0.25,5.0,4.0,15.0,20.0,0.0,6.0,3.0,3.0,4.0,3.0,5.0,4.0,4.0,1.0,4.0,1.0,4.0,1.0,4.0,3.0,5.0,59.0,1994.0,0.0,FR,0.0,0.0,5.0,2.0,5.0,1.0
lwd3fp9l,leem18,rpejdnjv,7,,0,rpejdnjv_6,,1,10.0,25.0,,,,,,,,127.0,rpejdnjv_2,0.0,8.0,8.0,8.0,0.0,0.0,92.5,55.833,7.815,5.0,2.0,0.0,100.0,50.0,26.76,27.94,2.94,,200.0,0.5,3.0,18.0,15.0,20.0,0.0,2.0,4.0,4.0,4.0,4.0,4.0,4.0,3.0,4.0,4.0,4.0,3.0,4.0,4.0,3.0,4.0,45.0,1994.0,1.0,FR,2.0,1.0,5.0,7.0,,1.0
z6p7eajj,leem14,rpejdnjv,7,,0,rpejdnjv_2,,0,4.0,17.0,,,,,,,,213.0,rpejdnjv_4,0.0,8.0,5.0,4.0,4.0,2.0,82.667,69.667,31.05,2.0,2.0,8.0,100.0,50.0,26.76,29.98,2.84,,1.0,0.5,2.0,4.0,15.0,20.0,2.0,2.0,4.0,3.0,4.0,4.0,5.0,4.0,5.0,1.0,4.0,1.0,4.0,3.0,4.0,2.0,5.0,59.0,2002.0,0.0,FR,0.0,1.0,1.0,6.0,,1.0
eh6ljriq,leem10,rpejdnjv,7,,0,rpejdnjv_1,,1,3.0,12.0,,,,,,,,231.0,rpejdnjv_9,4.0,5.0,3.0,7.0,2.0,2.0,84.5,54.833,7.974,3.0,1.0,3.0,63.0,94.0,26.76,21.55,2.74,,200.0,0.5,3.0,9.0,30.0,10.0,1.0,0.0,3.0,2.0,4.0,4.0,4.0,4.0,5.0,1.0,4.0,4.0,2.0,4.0,4.0,5.0,4.0,48.0,1994.0,0.0,DZ,0.0,1.0,5.0,16.0,,1.0
vmt5487m,leem17,rpejdnjv,7,,0,rpejdnjv_4,,1,9.0,25.0,,,,,,,,129.0,rpejdnjv_3,4.0,8.0,8.0,8.0,0.0,0.0,92.5,50.0,0.0,5.0,1.0,0.0,100.0,50.0,26.76,32.97,2.69,,200.0,10.0,2.0,4.0,8.0,1.0,0.0,2.0,1.0,2.0,3.0,3.0,1.0,1.0,3.0,1.0,2.0,1.0,1.0,1.0,1.0,4.0,5.0,46.0,2000.0,0.0,FR,0.0,1.0,3.0,15.0,,1.0
5jr55zaa,leem3,rpejdnjv,7,,0,rpejdnjv_1,,0,5.0,12.0,,,,,,,,285.0,rpejdnjv_8,0.0,8.0,8.0,3.0,0.0,8.0,86.333,70.5,29.433,3.0,2.0,8.0,85.0,85.0,26.76,17.88,2.56,,2.0,0.5,3.0,6.0,30.0,20.0,0.0,3.0,4.0,2.0,5.0,1.0,5.0,1.0,5.0,2.0,5.0,1.0,4.0,2.0,5.0,1.0,5.0,70.0,1996.0,0.0,FR,0.0,1.0,5.0,26.0,,1.0
nwik6h47,leem13,rpejdnjv,7,,0,rpejdnjv_5,,0,8.0,15.0,,,,,,,,312.0,rpejdnjv_7,0.0,8.0,8.0,8.0,4.0,8.0,85.833,65.833,23.838,5.0,2.0,0.0,100.0,50.0,26.76,20.47,2.69,,400.0,0.5,1.0,9.0,15.0,10.0,0.0,1.0,3.0,4.0,4.0,5.0,4.0,4.0,4.0,4.0,5.0,3.0,4.0,4.0,4.0,4.0,4.0,46.0,1997.0,1.0,FR,0.0,1.0,5.0,15.0,,1.0
zck3obfr,leem5,rpejdnjv,8,,0,rpejdnjv_5,,1,4.0,22.0,,,,,,,,168.0,rpejdnjv_5,0.0,8.0,8.0,3.0,4.0,8.0,82.167,74.667,37.482,6.0,1.0,0.0,100.0,50.0,84.58,91.25,2.67,,2.0,0.25,5.0,12.0,30.0,10.0,0.0,4.0,3.0,2.0,3.0,3.0,5.0,3.0,5.0,2.0,5.0,2.0,3.0,1.0,4.0,2.0,3.0,58.0,1994.0,1.0,FR,0.0,1.0,6.0,17.0,,1.0
nkp7u01x,leem11,rpejdnjv,8,,0,rpejdnjv_3,,0,6.0,18.0,,,,,,,,231.0,rpejdnjv_9,0.0,8.0,8.0,7.0,0.0,0.0,91.833,57.667,10.386,3.0,1.0,3.0,63.0,94.0,84.58,80.25,2.78,,200.0,0.5,3.0,9.0,29.0,10.0,0.0,2.0,4.0,4.0,5.0,4.0,5.0,5.0,5.0,1.0,4.0,3.0,4.0,1.0,5.0,1.0,3.0,58.0,2000.0,0.0,BI,0.0,1.0,3.0,6.0,,1.0
pvcmlcbn,leem1,rpejdnjv,8,,0,rpejdnjv_6,,1,3.0,21.0,,,,,,,,170.0,rpejdnjv_3,0.0,8.0,8.0,5.0,0.0,8.0,87.833,67.0,24.196,5.0,1.0,0.0,100.0,50.0,84.58,85.28,2.96,,400.0,0.5,5.0,4.0,29.0,20.0,0.0,5.0,4.0,4.0,5.0,4.0,4.0,1.0,5.0,1.0,5.0,4.0,4.0,1.0,4.0,1.0,4.0,61.0,1999.0,1.0,DZ,0.0,1.0,2.0,12.0,,1.0
2nz72whh,leem4,rpejdnjv,8,,0,rpejdnjv_2,,0,6.0,19.0,,,,,,,,217.0,rpejdnjv_7,0.0,8.0,8.0,8.0,0.0,0.0,92.5,55.833,7.815,5.0,2.0,0.0,100.0,50.0,84.58,85.0,2.98,,2.0,0.25,5.0,3.0,31.0,0.0,0.0,4.0,2.0,3.0,3.0,3.0,4.0,2.0,5.0,5.0,5.0,2.0,4.0,3.0,4.0,2.0,3.0,52.0,1995.0,1.0,FR,0.0,1.0,3.0,6.0,,1.0
ya5a8sr3,leem9,rpejdnjv,8,,0,rpejdnjv_4,,0,6.0,22.0,,,,,,,,177.0,rpejdnjv_6,1.0,8.0,8.0,8.0,0.0,0.0,92.5,54.333,5.821,6.0,2.0,0.0,100.0,50.0,84.58,85.55,2.95,,400.0,0.5,3.0,6.0,15.0,10.0,0.0,1.0,3.0,1.0,5.0,5.0,5.0,5.0,4.0,2.0,5.0,1.0,3.0,3.0,4.0,3.0,5.0,56.0,1998.0,0.0,HT,0.0,1.0,2.0,0.0,,1.0
weolk6ul,leem16,rpejdnjv,8,,0,rpejdnjv_3,,1,6.0,18.0,,,,,,,,231.0,rpejdnjv_2,0.0,8.0,8.0,3.0,0.0,3.0,87.833,66.833,23.986,5.0,2.0,0.0,100.0,50.0,84.58,84.05,2.97,,200.0,0.5,8.0,6.0,15.0,20.0,0.0,2.0,5.0,2.0,5.0,1.0,5.0,5.0,5.0,5.0,5.0,1.0,4.0,2.0,2.0,3.0,5.0,59.0,1998.0,0.0,MA,0.0,1.0,5.0,11.0,,1.0
7kvnqzhv,leem8,rpejdnjv,8,,0,rpejdnjv_2,,0,7.0,19.0,,,,,,,,228.0,rpejdnjv_8,0.0,8.0,8.0,3.0,4.0,5.0,83.167,72.5,34.152,3.0,2.0,8.0,85.0,85.0,84.58,13.54,0.0,,200.0,0.5,3.0,9.0,30.0,10.0,0.0,1.0,4.0,4.0,5.0,5.0,4.0,5.0,5.0,4.0,5.0,3.0,2.0,4.0,5.0,5.0,4.0,46.0,1995.0,0.0,BJ,0.0,1.0,3.0,8.0,,0.0
ybkwbvii,leem6,rpejdnjv,8,,0,rpejdnjv_5,,0,10.0,22.0,,,,,,,,195.0,rpejdnjv_10,0.0,8.0,8.0,8.0,0.0,0.0,92.5,55.833,7.815,3.0,2.0,8.0,85.0,85.0,84.58,53.89,1.47,,60.0,5.5,2.0,2.0,30.0,10.0,0.0,1.0,3.0,2.0,4.0,4.0,4.0,5.0,5.0,2.0,4.0,3.0,4.0,2.0,4.0,4.0,5.0,53.0,1995.0,0.0,IT,0.0,1.0,5.0,6.0,,1.0
emg0d2w7,leem2,rpejdnjv,8,,0,rpejdnjv_6,,0,8.0,21.0,,,,,,,,204.0,rpejdnjv_10,0.0,8.0,8.0,6.0,0.0,5.0,89.5,63.0,18.217,3.0,2.0,8.0,85.0,85.0,84.58,83.37,2.94,,200.0,0.5,3.0,12.0,30.0,20.0,2.0,1.0,2.0,2.0,5.0,5.0,5.0,5.0,5.0,2.0,4.0,2.0,4.0,2.0,4.0,3.0,4.0,54.0,1992.0,0.0,CD,0.0,1.0,5.0,6.0,,1.0
wg2u2li2,leem12,rpejdnjv,8,,0,rpejdnjv_4,,0,10.0,22.0,,,,,,,,195.0,rpejdnjv_4,0.0,8.0,8.0,0.0,4.0,8.0,80.0,80.0,45.0,2.0,2.0,8.0,100.0,50.0,84.58,86.23,2.92,,2.0,0.5,5.0,4.0,29.0,20.0,1.0,5.0,3.0,4.0,5.0,2.0,5.0,2.0,5.0,1.0,5.0,1.0,5.0,1.0,5.0,3.0,5.0,66.0,1998.0,1.0,FR,0.0,1.0,4.0,2.0,,1.0
cf9sd7cr,leem7,rpejdnjv,8,,0,rpejdnjv_1,,0,4.0,15.0,,,,,,,,231.0,rpejdnjv_6,0.0,8.0,8.0,8.0,0.0,0.0,92.5,55.833,7.815,6.0,2.0,0.0,100.0,50.0,84.58,86.77,2.89,,200.0,0.5,3.0,9.0,15.0,10.0,0.0,1.0,5.0,2.0,5.0,2.0,5.0,1.0,5.0,2.0,5.0,1.0,5.0,1.0,3.0,2.0,5.0,69.0,1996.0,0.0,FR,0.0,1.0,5.0,26.0,,1.0
d3a3pcnp,leem15,rpejdnjv,8,,0,rpejdnjv_3,,0,6.0,18.0,,,,,,,,231.0,rpejdnjv_5,0.0,8.0,8.0,8.0,0.0,0.0,92.5,55.833,7.815,6.0,1.0,0.0,100.0,50.0,84.58,83.1,2.93,,2.0,0.25,5.0,4.0,15.0,20.0,0.0,6.0,3.0,3.0,4.0,3.0,5.0,4.0,4.0,1.0,4.0,1.0,4.0,1.0,4.0,3.0,5.0,59.0,1994.0,0.0,FR,0.0,0.0,5.0,2.0,5.0,1.0
lwd3fp9l,leem18,rpejdnjv,8,,0,rpejdnjv_6,,0,10.0,21.0,,,,,,,,217.0,rpejdnjv_2,0.0,8.0,8.0,8.0,0.0,0.0,92.5,55.833,7.815,5.0,2.0,0.0,100.0,50.0,84.58,89.62,2.75,,200.0,0.5,3.0,18.0,15.0,20.0,0.0,2.0,4.0,4.0,4.0,4.0,4.0,4.0,3.0,4.0,4.0,4.0,3.0,4.0,4.0,3.0,4.0,45.0,1994.0,1.0,FR,2.0,1.0,5.0,7.0,,1.0
z6p7eajj,leem14,rpejdnjv,8,,0,rpejdnjv_2,,1,6.0,19.0,,,,,,,,217.0,rpejdnjv_4,0.0,8.0,5.0,4.0,4.0,2.0,82.667,69.667,31.05,2.0,2.0,8.0,100.0,50.0,84.58,82.97,2.92,,1.0,0.5,2.0,4.0,15.0,20.0,2.0,2.0,4.0,3.0,4.0,4.0,5.0,4.0,5.0,1.0,4.0,1.0,4.0,3.0,4.0,2.0,5.0,59.0,2002.0,0.0,FR,0.0,1.0,1.0,6.0,,1.0
eh6ljriq,leem10,rpejdnjv,8,,0,rpejdnjv_1,,0,8.0,15.0,,,,,,,,312.0,rpejdnjv_9,4.0,5.0,3.0,7.0,2.0,2.0,84.5,54.833,7.974,3.0,1.0,3.0,63.0,94.0,84.58,89.22,2.77,,200.0,0.5,3.0,9.0,30.0,10.0,1.0,0.0,3.0,2.0,4.0,4.0,4.0,4.0,5.0,1.0,4.0,4.0,2.0,4.0,4.0,5.0,4.0,48.0,1994.0,0.0,DZ,0.0,1.0,5.0,16.0,,1.0
vmt5487m,leem17,rpejdnjv,8,,0,rpejdnjv_4,,1,6.0,22.0,,,,,,,,177.0,rpejdnjv_3,4.0,8.0,8.0,8.0,0.0,0.0,92.5,50.0,0.0,5.0,1.0,0.0,100.0,50.0,84.58,85.68,2.94,,200.0,10.0,2.0,4.0,8.0,1.0,0.0,2.0,1.0,2.0,3.0,3.0,1.0,1.0,3.0,1.0,2.0,1.0,1.0,1.0,1.0,4.0,5.0,46.0,2000.0,0.0,FR,0.0,1.0,3.0,15.0,,1.0
5jr55zaa,leem3,rpejdnjv,8,,0,rpejdnjv_1,,1,3.0,15.0,,,,,,,,210.0,rpejdnjv_8,0.0,8.0,8.0,3.0,0.0,8.0,86.333,70.5,29.433,3.0,2.0,8.0,85.0,85.0,84.58,75.63,2.55,,2.0,0.5,3.0,6.0,30.0,20.0,0.0,3.0,4.0,2.0,5.0,1.0,5.0,1.0,5.0,2.0,5.0,1.0,4.0,2.0,5.0,1.0,5.0,70.0,1996.0,0.0,FR,0.0,1.0,5.0,26.0,,1.0
nwik6h47,leem13,rpejdnjv,8,,0,rpejdnjv_5,,0,8.0,22.0,,,,,,,,186.0,rpejdnjv_7,0.0,8.0,8.0,8.0,4.0,8.0,85.833,65.833,23.838,5.0,2.0,0.0,100.0,50.0,84.58,85.55,2.95,,400.0,0.5,1.0,9.0,15.0,10.0,0.0,1.0,3.0,4.0,4.0,5.0,4.0,4.0,4.0,4.0,5.0,3.0,4.0,4.0,4.0,4.0,4.0,46.0,1997.0,1.0,FR,0.0,1.0,5.0,15.0,,1.0
zck3obfr,leem5,rpejdnjv,9,,0,rpejdnjv_5,,1,4.0,20.0,,,,,,,,186.0,rpejdnjv_5,0.0,8.0,8.0,3.0,4.0,8.0,82.167,74.667,37.482,6.0,1.0,0.0,100.0,50.0,94.21,97.78,2.82,,2.0,0.25,5.0,12.0,30.0,10.0,0.0,4.0,3.0,2.0,3.0,3.0,5.0,3.0,5.0,2.0,5.0,2.0,3.0,1.0,4.0,2.0,3.0,58.0,1994.0,1.0,FR,0.0,1.0,6.0,17.0,,1.0
nkp7u01x,leem11,rpejdnjv,9,,0,rpejdnjv_3,,0,5.0,17.0,,,,,,,,228.0,rpejdnjv_9,0.0,8.0,8.0,7.0,0.0,0.0,91.833,57.667,10.386,3.0,1.0,3.0,63.0,94.0,94.21,95.74,2.92,,200.0,0.5,3.0,9.0,29.0,10.0,0.0,2.0,4.0,4.0,5.0,4.0,5.0,5.0,5.0,1.0,4.0,3.0,4.0,1.0,5.0,1.0,3.0,58.0,2000.0,0.0,BI,0.0,1.0,3.0,6.0,,1.0
pvcmlcbn,leem1,rpejdnjv,9,,0,rpejdnjv_6,,0,4.0,18.0,,,,,,,,204.0,rpejdnjv_3,0.0,8.0,8.0,5.0,0.0,8.0,87.833,67.0,24.196,5.0,1.0,0.0,100.0,50.0,94.21,96.01,2.91,,400.0,0.5,5.0,4.0,29.0,20.0,0.0,5.0,4.0,4.0,5.0,4.0,4.0,1.0,5.0,1.0,5.0,4.0,4.0,1.0,4.0,1.0,4.0,61.0,1999.0,1.0,DZ,0.0,1.0,2.0,12.0,,1.0
2nz72whh,leem4,rpejdnjv,9,,0,rpejdnjv_2,,0,5.0,16.0,,,,,,,,240.0,rpejdnjv_7,0.0,8.0,8.0,8.0,0.0,0.0,92.5,55.833,7.815,5.0,2.0,0.0,100.0,50.0,94.21,95.87,2.92,,2.0,0.25,5.0,3.0,31.0,0.0,0.0,4.0,2.0,3.0,3.0,3.0,4.0,2.0,5.0,5.0,5.0,2.0,4.0,3.0,4.0,2.0,3.0,52.0,1995.0,1.0,FR,0.0,1.0,3.0,6.0,,1.0
ya5a8sr3,leem9,rpejdnjv,9,,0,rpejdnjv_4,,0,10.0,16.0,,,,,,,,330.0,rpejdnjv_6,1.0,8.0,8.0,8.0,0.0,0.0,92.5,54.333,5.821,6.0,2.0,0.0,100.0,50.0,94.21,93.43,2.96,,400.0,0.5,3.0,6.0,15.0,10.0,0.0,1.0,3.0,1.0,5.0,5.0,5.0,5.0,4.0,2.0,5.0,1.0,3.0,3.0,4.0,3.0,5.0,56.0,1998.0,0.0,HT,0.0,1.0,2.0,0.0,,1.0
weolk6ul,leem16,rpejdnjv,9,,0,rpejdnjv_3,,1,6.0,17.0,,,,,,,,244.0,rpejdnjv_2,0.0,8.0,8.0,3.0,0.0,3.0,87.833,66.833,23.986,5.0,2.0,0.0,100.0,50.0,94.21,92.07,2.89,,200.0,0.5,8.0,6.0,15.0,20.0,0.0,2.0,5.0,2.0,5.0,1.0,5.0,5.0,5.0,5.0,5.0,1.0,4.0,2.0,2.0,3.0,5.0,59.0,1998.0,0.0,MA,0.0,1.0,5.0,11.0,,1.0
7kvnqzhv,leem8,rpejdnjv,9,,0,rpejdnjv_2,,0,4.0,16.0,,,,,,,,222.0,rpejdnjv_8,0.0,8.0,8.0,3.0,4.0,5.0,83.167,72.5,34.152,3.0,2.0,8.0,85.0,85.0,94.21,47.78,0.68,,200.0,0.5,3.0,9.0,30.0,10.0,0.0,1.0,4.0,4.0,5.0,5.0,4.0,5.0,5.0,4.0,5.0,3.0,2.0,4.0,5.0,5.0,4.0,46.0,1995.0,0.0,BJ,0.0,1.0,3.0,8.0,,0.0
ybkwbvii,leem6,rpejdnjv,9,,0,rpejdnjv_5,,0,8.0,20.0,,,,,,,,222.0,rpejdnjv_10,0.0,8.0,8.0,8.0,0.0,0.0,92.5,55.833,7.815,3.0,2.0,8.0,85.0,85.0,94.21,50.08,0.79,,60.0,5.5,2.0,2.0,30.0,10.0,0.0,1.0,3.0,2.0,4.0,4.0,4.0,5.0,5.0,2.0,4.0,3.0,4.0,2.0,4.0,4.0,5.0,53.0,1995.0,0.0,IT,0.0,1.0,5.0,6.0,,1.0
emg0d2w7,leem2,rpejdnjv,9,,0,rpejdnjv_6,,0,6.0,18.0,,,,,,,,231.0,rpejdnjv_10,0.0,8.0,8.0,6.0,0.0,5.0,89.5,63.0,18.217,3.0,2.0,8.0,85.0,85.0,94.21,95.33,2.94,,200.0,0.5,3.0,12.0,30.0,20.0,2.0,1.0,2.0,2.0,5.0,5.0,5.0,5.0,5.0,2.0,4.0,2.0,4.0,2.0,4.0,3.0,4.0,54.0,1992.0,0.0,CD,0.0,1.0,5.0,6.0,,1.0
wg2u2li2,leem12,rpejdnjv,9,,0,rpejdnjv_4,,0,4.0,16.0,,,,,,,,222.0,rpejdnjv_4,0.0,8.0,8.0,0.0,4.0,8.0,80.0,80.0,45.0,2.0,2.0,8.0,100.0,50.0,94.21,95.74,2.92,,2.0,0.5,5.0,4.0,29.0,20.0,1.0,5.0,3.0,4.0,5.0,2.0,5.0,2.0,5.0,1.0,5.0,1.0,5.0,1.0,5.0,3.0,5.0,66.0,1998.0,1.0,FR,0.0,1.0,4.0,2.0,,1.0
cf9sd7cr,leem7,rpejdnjv,9,,0,rpejdnjv_1,,1,5.0,19.0,,,,,,,,206.0,rpejdnjv_6,0.0,8.0,8.0,8.0,0.0,0.0,92.5,55.833,7.815,6.0,2.0,0.0,100.0,50.0,94.21,92.34,2.91,,200.0,0.5,3.0,9.0,15.0,10.0,0.0,1.0,5.0,2.0,5.0,2.0,5.0,1.0,5.0,2.0,5.0,1.0,5.0,1.0,3.0,2.0,5.0,69.0,1996.0,0.0,FR,0.0,1.0,5.0,26.0,,1.0
d3a3pcnp,leem15,rpejdnjv,9,,0,rpejdnjv_3,,0,6.0,17.0,,,,,,,,244.0,rpejdnjv_5,0.0,8.0,8.0,8.0,0.0,0.0,92.5,55.833,7.815,6.0,1.0,0.0,100.0,50.0,94.21,95.6,2.93,,2.0,0.25,5.0,4.0,15.0,20.0,0.0,6.0,3.0,3.0,4.0,3.0,5.0,4.0,4.0,1.0,4.0,1.0,4.0,1.0,4.0,3.0,5.0,59.0,1994.0,0.0,FR,0.0,0.0,5.0,2.0,5.0,1.0
lwd3fp9l,leem18,rpejdnjv,9,,0,rpejdnjv_6,,1,8.0,18.0,,,,,,,,258.0,rpejdnjv_2,0.0,8.0,8.0,8.0,0.0,0.0,92.5,55.833,7.815,5.0,2.0,0.0,100.0,50.0,94.21,95.47,2.94,,200.0,0.5,3.0,18.0,15.0,20.0,0.0,2.0,4.0,4.0,4.0,4.0,4.0,4.0,3.0,4.0,4.0,4.0,3.0,4.0,4.0,3.0,4.0,45.0,1994.0,1.0,FR,2.0,1.0,5.0,7.0,,1.0
z6p7eajj,leem14,rpejdnjv,9,,0,rpejdnjv_2,,1,7.0,16.0,,,,,,,,276.0,rpejdnjv_4,0.0,8.0,5.0,4.0,4.0,2.0,82.667,69.667,31.05,2.0,2.0,8.0,100.0,50.0,94.21,90.3,2.8,,1.0,0.5,2.0,4.0,15.0,20.0,2.0,2.0,4.0,3.0,4.0,4.0,5.0,4.0,5.0,1.0,4.0,1.0,4.0,3.0,4.0,2.0,5.0,59.0,2002.0,0.0,FR,0.0,1.0,1.0,6.0,,1.0
eh6ljriq,leem10,rpejdnjv,9,,0,rpejdnjv_1,,0,7.0,19.0,,,,,,,,228.0,rpejdnjv_9,4.0,5.0,3.0,7.0,2.0,2.0,84.5,54.833,7.974,3.0,1.0,3.0,63.0,94.0,94.21,93.43,2.96,,200.0,0.5,3.0,9.0,30.0,10.0,1.0,0.0,3.0,2.0,4.0,4.0,4.0,4.0,5.0,1.0,4.0,4.0,2.0,4.0,4.0,5.0,4.0,48.0,1994.0,0.0,DZ,0.0,1.0,5.0,16.0,,1.0
vmt5487m,leem17,rpejdnjv,9,,0,rpejdnjv_4,,1,2.0,16.0,,,,,,,,186.0,rpejdnjv_3,4.0,8.0,8.0,8.0,0.0,0.0,92.5,50.0,0.0,5.0,1.0,0.0,100.0,50.0,94.21,81.88,2.38,,200.0,10.0,2.0,4.0,8.0,1.0,0.0,2.0,1.0,2.0,3.0,3.0,1.0,1.0,3.0,1.0,2.0,1.0,1.0,1.0,1.0,4.0,5.0,46.0,2000.0,0.0,FR,0.0,1.0,3.0,15.0,,1.0
5jr55zaa,leem3,rpejdnjv,9,,0,rpejdnjv_1,,0,7.0,19.0,,,,,,,,228.0,rpejdnjv_8,0.0,8.0,8.0,3.0,0.0,8.0,86.333,70.5,29.433,3.0,2.0,8.0,85.0,85.0,94.21,86.5,2.61,,2.0,0.5,3.0,6.0,30.0,20.0,0.0,3.0,4.0,2.0,5.0,1.0,5.0,1.0,5.0,2.0,5.0,1.0,4.0,2.0,5.0,1.0,5.0,70.0,1996.0,0.0,FR,0.0,1.0,5.0,26.0,,1.0
nwik6h47,leem13,rpejdnjv,9,,0,rpejdnjv_5,,0,8.0,20.0,,,,,,,,222.0,rpejdnjv_7,0.0,8.0,8.0,8.0,4.0,8.0,85.833,65.833,23.838,5.0,2.0,0.0,100.0,50.0,94.21,96.28,2.9,,400.0,0.5,1.0,9.0,15.0,10.0,0.0,1.0,3.0,4.0,4.0,5.0,4.0,4.0,4.0,4.0,5.0,3.0,4.0,4.0,4.0,4.0,4.0,46.0,1997.0,1.0,FR,0.0,1.0,5.0,15.0,,1.0
zck3obfr,leem5,rpejdnjv,10,,0,rpejdnjv_5,,1,4.0,20.0,,,,,,,,186.0,rpejdnjv_5,0.0,8.0,8.0,3.0,4.0,8.0,82.167,74.667,37.482,6.0,1.0,0.0,100.0,50.0,5.87,1.99,2.81,,2.0,0.25,5.0,12.0,30.0,10.0,0.0,4.0,3.0,2.0,3.0,3.0,5.0,3.0,5.0,2.0,5.0,2.0,3.0,1.0,4.0,2.0,3.0,58.0,1994.0,1.0,FR,0.0,1.0,6.0,17.0,,1.0
nkp7u01x,leem11,rpejdnjv,10,,0,rpejdnjv_3,,0,6.0,19.0,,,,,,,,217.0,rpejdnjv_9,0.0,8.0,8.0,7.0,0.0,0.0,91.833,57.667,10.386,3.0,1.0,3.0,63.0,94.0,5.87,3.35,2.87,,200.0,0.5,3.0,9.0,29.0,10.0,0.0,2.0,4.0,4.0,5.0,4.0,5.0,5.0,5.0,1.0,4.0,3.0,4.0,1.0,5.0,1.0,3.0,58.0,2000.0,0.0,BI,0.0,1.0,3.0,6.0,,1.0
pvcmlcbn,leem1,rpejdnjv,10,,0,rpejdnjv_6,,0,7.0,25.0,,,,,,,,134.0,rpejdnjv_3,0.0,8.0,8.0,5.0,0.0,8.0,87.833,67.0,24.196,5.0,1.0,0.0,100.0,50.0,5.87,5.25,2.97,,400.0,0.5,5.0,4.0,29.0,20.0,0.0,5.0,4.0,4.0,5.0,4.0,4.0,1.0,5.0,1.0,5.0,4.0,4.0,1.0,4.0,1.0,4.0,61.0,1999.0,1.0,DZ,0.0,1.0,2.0,12.0,,1.0
2nz72whh,leem4,rpejdnjv,10,,0,rpejdnjv_2,,0,6.0,16.0,,,,,,,,258.0,rpejdnjv_7,0.0,8.0,8.0,8.0,0.0,0.0,92.5,55.833,7.815,5.0,2.0,0.0,100.0,50.0,5.87,1.85,2.8,,2.0,0.25,5.0,3.0,31.0,0.0,0.0,4.0,2.0,3.0,3.0,3.0,4.0,2.0,5.0,5.0,5.0,2.0,4.0,3.0,4.0,2.0,3.0,52.0,1995.0,1.0,FR,0.0,1.0,3.0,6.0,,1.0
ya5a8sr3,leem9,rpejdnjv,10,,0,rpejdnjv_4,,0,5.0,19.0,,,,,,,,206.0,rpejdnjv_6,1.0,8.0,8.0,8.0,0.0,0.0,92.5,54.333,5.821,6.0,2.0,0.0,100.0,50.0,5.87,4.57,2.94,,400.0,0.5,3.0,6.0,15.0,10.0,0.0,1.0,3.0,1.0,5.0,5.0,5.0,5.0,4.0,2.0,5.0,1.0,3.0,3.0,4.0,3.0,5.0,56.0,1998.0,0.0,HT,0.0,1.0,2.0,0.0,,1.0
weolk6ul,leem16,rpejdnjv,10,,0,rpejdnjv_3,,1,6.0,19.0,,,,,,,,217.0,rpejdnjv_2,0.0,8.0,8.0,3.0,0.0,3.0,87.833,66.833,23.986,5.0,2.0,0.0,100.0,50.0,5.87,3.07,2.86,,200.0,0.5,8.0,6.0,15.0,20.0,0.0,2.0,5.0,2.0,5.0,1.0,5.0,5.0,5.0,5.0,5.0,1.0,4.0,2.0,2.0,3.0,5.0,59.0,1998.0,0.0,MA,0.0,1.0,5.0,11.0,,1.0
7kvnqzhv,leem8,rpejdnjv,10,,0,rpejdnjv_2,,1,5.0,16.0,,,,,,,,240.0,rpejdnjv_8,0.0,8.0,8.0,3.0,4.0,5.0,83.167,72.5,34.152,3.0,2.0,8.0,85.0,85.0,5.87,1.99,2.81,,200.0,0.5,3.0,9.0,30.0,10.0,0.0,1.0,4.0,4.0,5.0,5.0,4.0,5.0,5.0,4.0,5.0,3.0,2.0,4.0,5.0,5.0,4.0,46.0,1995.0,0.0,BJ,0.0,1.0,3.0,8.0,,0.0
ybkwbvii,leem6,rpejdnjv,10,,0,rpejdnjv_5,,0,8.0,20.0,,,,,,,,222.0,rpejdnjv_10,0.0,8.0,8.0,8.0,0.0,0.0,92.5,55.833,7.815,3.0,2.0,8.0,85.0,85.0,5.87,1.31,2.77,,60.0,5.5,2.0,2.0,30.0,10.0,0.0,1.0,3.0,2.0,4.0,4.0,4.0,5.0,5.0,2.0,4.0,3.0,4.0,2.0,4.0,4.0,5.0,53.0,1995.0,0.0,IT,0.0,1.0,5.0,6.0,,1.0
emg0d2w7,leem2,rpejdnjv,10,,0,rpejdnjv_6,,0,8.0,25.0,,,,,,,,132.0,rpejdnjv_10,0.0,8.0,8.0,6.0,0.0,5.0,89.5,63.0,18.217,3.0,2.0,8.0,85.0,85.0,5.87,26.04,1.99,,200.0,0.5,3.0,12.0,30.0,20.0,2.0,1.0,2.0,2.0,5.0,5.0,5.0,5.0,5.0,2.0,4.0,2.0,4.0,2.0,4.0,3.0,4.0,54.0,1992.0,0.0,CD,0.0,1.0,5.0,6.0,,1.0
wg2u2li2,leem12,rpejdnjv,10,,0,rpejdnjv_4,,1,4.0,19.0,,,,,,,,195.0,rpejdnjv_4,0.0,8.0,8.0,0.0,4.0,8.0,80.0,80.0,45.0,2.0,2.0,8.0,100.0,50.0,5.87,2.26,2.82,,2.0,0.5,5.0,4.0,29.0,20.0,1.0,5.0,3.0,4.0,5.0,2.0,5.0,2.0,5.0,1.0,5.0,1.0,5.0,1.0,5.0,3.0,5.0,66.0,1998.0,1.0,FR,0.0,1.0,4.0,2.0,,1.0
cf9sd7cr,leem7,rpejdnjv,10,,0,rpejdnjv_1,,1,6.0,17.0,,,,,,,,244.0,rpejdnjv_6,0.0,8.0,8.0,8.0,0.0,0.0,92.5,55.833,7.815,6.0,2.0,0.0,100.0,50.0,5.87,1.58,2.79,,200.0,0.5,3.0,9.0,15.0,10.0,0.0,1.0,5.0,2.0,5.0,2.0,5.0,1.0,5.0,2.0,5.0,1.0,5.0,1.0,3.0,2.0,5.0,69.0,1996.0,0.0,FR,0.0,1.0,5.0,26.0,,1.0
d3a3pcnp,leem15,rpejdnjv,10,,0,rpejdnjv_3,,0,7.0,19.0,,,,,,,,228.0,rpejdnjv_5,0.0,8.0,8.0,8.0,0.0,0.0,92.5,55.833,7.815,6.0,1.0,0.0,100.0,50.0,5.87,2.39,2.83,,2.0,0.25,5.0,4.0,15.0,20.0,0.0,6.0,3.0,3.0,4.0,3.0,5.0,4.0,4.0,1.0,4.0,1.0,4.0,1.0,4.0,3.0,5.0,59.0,1994.0,0.0,FR,0.0,0.0,5.0,2.0,5.0,1.0
lwd3fp9l,leem18,rpejdnjv,10,,0,rpejdnjv_6,,1,10.0,25.0,,,,,,,,127.0,rpejdnjv_2,0.0,8.0,8.0,8.0,0.0,0.0,92.5,55.833,7.815,5.0,2.0,0.0,100.0,50.0,5.87,1.04,2.76,,200.0,0.5,3.0,18.0,15.0,20.0,0.0,2.0,4.0,4.0,4.0,4.0,4.0,4.0,3.0,4.0,4.0,4.0,3.0,4.0,4.0,3.0,4.0,45.0,1994.0,1.0,FR,2.0,1.0,5.0,7.0,,1.0
z6p7eajj,leem14,rpejdnjv,10,,0,rpejdnjv_2,,0,5.0,16.0,,,,,,,,240.0,rpejdnjv_4,0.0,8.0,5.0,4.0,4.0,2.0,82.667,69.667,31.05,2.0,2.0,8.0,100.0,50.0,5.87,6.2,2.98,,1.0,0.5,2.0,4.0,15.0,20.0,2.0,2.0,4.0,3.0,4.0,4.0,5.0,4.0,5.0,1.0,4.0,1.0,4.0,3.0,4.0,2.0,5.0,59.0,2002.0,0.0,FR,0.0,1.0,1.0,6.0,,1.0
eh6ljriq,leem10,rpejdnjv,10,,0,rpejdnjv_1,,0,6.0,17.0,,,,,,,,244.0,rpejdnjv_9,4.0,5.0,3.0,7.0,2.0,2.0,84.5,54.833,7.974,3.0,1.0,3.0,63.0,94.0,5.87,4.98,2.96,,200.0,0.5,3.0,9.0,30.0,10.0,1.0,0.0,3.0,2.0,4.0,4.0,4.0,4.0,5.0,1.0,4.0,4.0,2.0,4.0,4.0,5.0,4.0,48.0,1994.0,0.0,DZ,0.0,1.0,5.0,16.0,,1.0
vmt5487m,leem17,rpejdnjv,10,,0,rpejdnjv_4,,0,10.0,19.0,,,,,,,,262.0,rpejdnjv_3,4.0,8.0,8.0,8.0,0.0,0.0,92.5,50.0,0.0,5.0,1.0,0.0,100.0,50.0,5.87,14.08,2.59,,200.0,10.0,2.0,4.0,8.0,1.0,0.0,2.0,1.0,2.0,3.0,3.0,1.0,1.0,3.0,1.0,2.0,1.0,1.0,1.0,1.0,4.0,5.0,46.0,2000.0,0.0,FR,0.0,1.0,3.0,15.0,,1.0
5jr55zaa,leem3,rpejdnjv,10,,0,rpejdnjv_1,,0,5.0,17.0,,,,,,,,228.0,rpejdnjv_8,0.0,8.0,8.0,3.0,0.0,8.0,86.333,70.5,29.433,3.0,2.0,8.0,85.0,85.0,5.87,7.29,2.93,,2.0,0.5,3.0,6.0,30.0,20.0,0.0,3.0,4.0,2.0,5.0,1.0,5.0,1.0,5.0,2.0,5.0,1.0,4.0,2.0,5.0,1.0,5.0,70.0,1996.0,0.0,FR,0.0,1.0,5.0,26.0,,1.0
nwik6h47,leem13,rpejdnjv,10,,0,rpejdnjv_5,,0,8.0,20.0,,,,,,,,222.0,rpejdnjv_7,0.0,8.0,8.0,8.0,4.0,8.0,85.833,65.833,23.838,5.0,2.0,0.0,100.0,50.0,5.87,5.52,2.98,,400.0,0.5,1.0,9.0,15.0,10.0,0.0,1.0,3.0,4.0,4.0,5.0,4.0,4.0,4.0,4.0,5.0,3.0,4.0,4.0,4.0,4.0,4.0,46.0,1997.0,1.0,FR,0.0,1.0,5.0,15.0,,1.0
zck3obfr,leem5,rpejdnjv,11,,0,rpejdnjv_5,,0,8.0,24.0,,,,,,,,150.0,rpejdnjv_5,0.0,8.0,8.0,3.0,4.0,8.0,82.167,74.667,37.482,6.0,1.0,0.0,100.0,50.0,64.9,74.27,2.53,,2.0,0.25,5.0,12.0,30.0,10.0,0.0,4.0,3.0,2.0,3.0,3.0,5.0,3.0,5.0,2.0,5.0,2.0,3.0,1.0,4.0,2.0,3.0,58.0,1994.0,1.0,FR,0.0,1.0,6.0,17.0,,1.0
nkp7u01x,leem11,rpejdnjv,11,,0,rpejdnjv_3,,1,7.0,21.0,,,,,,,,197.0,rpejdnjv_9,0.0,8.0,8.0,7.0,0.0,0.0,91.833,57.667,10.386,3.0,1.0,3.0,63.0,94.0,64.9,56.47,2.58,,200.0,0.5,3.0,9.0,29.0,10.0,0.0,2.0,4.0,4.0,5.0,4.0,5.0,5.0,5.0,1.0,4.0,3.0,4.0,1.0,5.0,1.0,3.0,58.0,2000.0,0.0,BI,0.0,1.0,3.0,6.0,,1.0
pvcmlcbn,leem1,rpejdnjv,11,,0,rpejdnjv_6,,1,6.0,22.0,,,,,,,,177.0,rpejdnjv_3,0.0,8.0,8.0,5.0,0.0,8.0,87.833,67.0,24.196,5.0,1.0,0.0,100.0,50.0,64.9,63.54,2.93,,400.0,0.5,5.0,4.0,29.0,20.0,0.0,5.0,4.0,4.0,5.0,4.0,4.0,1.0,5.0,1.0,5.0,4.0,4.0,1.0,4.0,1.0,4.0,61.0,1999.0,1.0,DZ,0.0,1.0,2.0,12.0,,1.0
2nz72whh,leem4,rpejdnjv,11,,0,rpejdnjv_2,,1,5.0,12.0,,,,,,,,285.0,rpejdnjv_7,0.0,8.0,8.0,8.0,0.0,0.0,92.5,55.833,7.815,5.0,2.0,0.0,100.0,50.0,64.9,62.31,2.87,,2.0,0.25,5.0,3.0,31.0,0.0,0.0,4.0,2.0,3.0,3.0,3.0,4.0,2.0,5.0,5.0,5.0,2.0,4.0,3.0,4.0,2.0,3.0,52.0,1995.0,1.0,FR,0.0,1.0,3.0,6.0,,1.0
ya5a8sr3,leem9,rpejdnjv,11,,0,rpejdnjv_4,,0,10.0,20.0,,,,,,,,240.0,rpejdnjv_6,1.0,8.0,8.0,8.0,0.0,0.0,92.5,54.333,5.821,6.0,2.0,0.0,100.0,50.0,64.9,78.89,2.3,,400.0,0.5,3.0,6.0,15.0,10.0,0.0,1.0,3.0,1.0,5.0,5.0,5.0,5.0,4.0,2.0,5.0,1.0,3.0,3.0,4.0,3.0,5.0,56.0,1998.0,0.0,HT,0.0,1.0,2.0,0.0,,1.0
weolk6ul,leem16,rpejdnjv,11,,0,rpejdnjv_3,,0,8.0,21.0,,,,,,,,204.0,rpejdnjv_2,0.0,8.0,8.0,3.0,0.0,3.0,87.833,66.833,23.986,5.0,2.0,0.0,100.0,50.0,64.9,63.54,2.93,,200.0,0.5,8.0,6.0,15.0,20.0,0.0,2.0,5.0,2.0,5.0,1.0,5.0,5.0,5.0,5.0,5.0,1.0,4.0,2.0,2.0,3.0,5.0,59.0,1998.0,0.0,MA,0.0,1.0,5.0,11.0,,1.0
7kvnqzhv,leem8,rpejdnjv,11,,0,rpejdnjv_2,,0,4.0,12.0,,,,,,,,258.0,rpejdnjv_8,0.0,8.0,8.0,3.0,4.0,5.0,83.167,72.5,34.152,3.0,2.0,8.0,85.0,85.0,64.9,24.13,0.96,,200.0,0.5,3.0,9.0,30.0,10.0,0.0,1.0,4.0,4.0,5.0,5.0,4.0,5.0,5.0,4.0,5.0,3.0,2.0,4.0,5.0,5.0,4.0,46.0,1995.0,0.0,BJ,0.0,1.0,3.0,8.0,,0.0
ybkwbvii,leem6,rpejdnjv,11,,0,rpejdnjv_5,,0,8.0,24.0,,,,,,,,150.0,rpejdnjv_10,0.0,8.0,8.0,8.0,0.0,0.0,92.5,55.833,7.815,3.0,2.0,8.0,85.0,85.0,64.9,43.83,1.95,,60.0,5.5,2.0,2.0,30.0,10.0,0.0,1.0,3.0,2.0,4.0,4.0,4.0,5.0,5.0,2.0,4.0,3.0,4.0,2.0,4.0,4.0,5.0,53.0,1995.0,0.0,IT,0.0,1.0,5.0,6.0,,1.0
emg0d2w7,leem2,rpejdnjv,11,,0,rpejdnjv_6,,0,6.0,22.0,,,,,,,,177.0,rpejdnjv_10,0.0,8.0,8.0,6.0,0.0,5.0,89.5,63.0,18.217,3.0,2.0,8.0,85.0,85.0,64.9,76.04,2.44,,200.0,0.5,3.0,12.0,30.0,20.0,2.0,1.0,2.0,2.0,5.0,5.0,5.0,5.0,5.0,2.0,4.0,2.0,4.0,2.0,4.0,3.0,4.0,54.0,1992.0,0.0,CD,0.0,1.0,5.0,6.0,,1.0
wg2u2li2,leem12,rpejdnjv,11,,0,rpejdnjv_4,,1,4.0,20.0,,,,,,,,186.0,rpejdnjv_4,0.0,8.0,8.0,0.0,4.0,8.0,80.0,80.0,45.0,2.0,2.0,8.0,100.0,50.0,64.9,67.34,2.88,,2.0,0.5,5.0,4.0,29.0,20.0,1.0,5.0,3.0,4.0,5.0,2.0,5.0,2.0,5.0,1.0,5.0,1.0,5.0,1.0,5.0,3.0,5.0,66.0,1998.0,1.0,FR,0.0,1.0,4.0,2.0,,1.0
cf9sd7cr,leem7,rpejdnjv,11,,0,rpejdnjv_1,,0,3.0,12.0,,,,,,,,231.0,rpejdnjv_6,0.0,8.0,8.0,8.0,0.0,0.0,92.5,55.833,7.815,6.0,2.0,0.0,100.0,50.0,64.9,71.69,2.66,,200.0,0.5,3.0,9.0,15.0,10.0,0.0,1.0,5.0,2.0,5.0,2.0,5.0,1.0,5.0,2.0,5.0,1.0,5.0,1.0,3.0,2.0,5.0,69.0,1996.0,0.0,FR,0.0,1.0,5.0,26.0,,1.0
d3a3pcnp,leem15,rpejdnjv,11,,0,rpejdnjv_3,,0,6.0,21.0,,,,,,,,190.0,rpejdnjv_5,0.0,8.0,8.0,8.0,0.0,0.0,92.5,55.833,7.815,6.0,1.0,0.0,100.0,50.0,64.9,63.13,2.91,,2.0,0.25,5.0,4.0,15.0,20.0,0.0,6.0,3.0,3.0,4.0,3.0,5.0,4.0,4.0,1.0,4.0,1.0,4.0,1.0,4.0,3.0,5.0,59.0,1994.0,0.0,FR,0.0,0.0,5.0,2.0,5.0,1.0
lwd3fp9l,leem18,rpejdnjv,11,,0,rpejdnjv_6,,0,10.0,22.0,,,,,,,,195.0,rpejdnjv_2,0.0,8.0,8.0,8.0,0.0,0.0,92.5,55.833,7.815,5.0,2.0,0.0,100.0,50.0,64.9,68.97,2.8,,200.0,0.5,3.0,18.0,15.0,20.0,0.0,2.0,4.0,4.0,4.0,4.0,4.0,4.0,3.0,4.0,4.0,4.0,3.0,4.0,4.0,3.0,4.0,45.0,1994.0,1.0,FR,2.0,1.0,5.0,7.0,,1.0
z6p7eajj,leem14,rpejdnjv,11,,0,rpejdnjv_2,,0,3.0,12.0,,,,,,,,231.0,rpejdnjv_4,0.0,8.0,5.0,4.0,4.0,2.0,82.667,69.667,31.05,2.0,2.0,8.0,100.0,50.0,64.9,57.15,2.61,,1.0,0.5,2.0,4.0,15.0,20.0,2.0,2.0,4.0,3.0,4.0,4.0,5.0,4.0,5.0,1.0,4.0,1.0,4.0,3.0,4.0,2.0,5.0,59.0,2002.0,0.0,FR,0.0,1.0,1.0,6.0,,1.0
eh6ljriq,leem10,rpejdnjv,11,,0,rpejdnjv_1,,0,5.0,12.0,,,,,,,,285.0,rpejdnjv_9,4.0,5.0,3.0,7.0,2.0,2.0,84.5,54.833,7.974,3.0,1.0,3.0,63.0,94.0,64.9,56.47,2.58,,200.0,0.5,3.0,9.0,30.0,10.0,1.0,0.0,3.0,2.0,4.0,4.0,4.0,4.0,5.0,1.0,4.0,4.0,2.0,4.0,4.0,5.0,4.0,48.0,1994.0,0.0,DZ,0.0,1.0,5.0,16.0,,1.0
vmt5487m,leem17,rpejdnjv,11,,0,rpejdnjv_4,,0,6.0,20.0,,,,,,,,204.0,rpejdnjv_3,4.0,8.0,8.0,8.0,0.0,0.0,92.5,50.0,0.0,5.0,1.0,0.0,100.0,50.0,64.9,75.36,2.48,,200.0,10.0,2.0,4.0,8.0,1.0,0.0,2.0,1.0,2.0,3.0,3.0,1.0,1.0,3.0,1.0,2.0,1.0,1.0,1.0,1.0,4.0,5.0,46.0,2000.0,0.0,FR,0.0,1.0,3.0,15.0,,1.0
5jr55zaa,leem3,rpejdnjv,11,,0,rpejdnjv_1,,1,4.0,12.0,,,,,,,,258.0,rpejdnjv_8,0.0,8.0,8.0,3.0,0.0,8.0,86.333,70.5,29.433,3.0,2.0,8.0,85.0,85.0,64.9,55.79,2.54,,2.0,0.5,3.0,6.0,30.0,20.0,0.0,3.0,4.0,2.0,5.0,1.0,5.0,1.0,5.0,2.0,5.0,1.0,4.0,2.0,5.0,1.0,5.0,70.0,1996.0,0.0,FR,0.0,1.0,5.0,26.0,,1.0
nwik6h47,leem13,rpejdnjv,11,,0,rpejdnjv_5,,1,8.0,24.0,,,,,,,,150.0,rpejdnjv_7,0.0,8.0,8.0,8.0,4.0,8.0,85.833,65.833,23.838,5.0,2.0,0.0,100.0,50.0,64.9,71.82,2.65,,400.0,0.5,1.0,9.0,15.0,10.0,0.0,1.0,3.0,4.0,4.0,5.0,4.0,4.0,4.0,4.0,5.0,3.0,4.0,4.0,4.0,4.0,4.0,46.0,1997.0,1.0,FR,0.0,1.0,5.0,15.0,,1.0
zck3obfr,leem5,rpejdnjv,12,,0,rpejdnjv_5,,1,4.0,16.0,,,,,,,,222.0,rpejdnjv_5,0.0,8.0,8.0,3.0,4.0,8.0,82.167,74.667,37.482,6.0,1.0,0.0,100.0,50.0,45.49,45.06,2.98,,2.0,0.25,5.0,12.0,30.0,10.0,0.0,4.0,3.0,2.0,3.0,3.0,5.0,3.0,5.0,2.0,5.0,2.0,3.0,1.0,4.0,2.0,3.0,58.0,1994.0,1.0,FR,0.0,1.0,6.0,17.0,,1.0
nkp7u01x,leem11,rpejdnjv,12,,0,rpejdnjv_3,,1,8.0,21.0,,,,,,,,204.0,rpejdnjv_9,0.0,8.0,8.0,7.0,0.0,0.0,91.833,57.667,10.386,3.0,1.0,3.0,63.0,94.0,45.49,44.38,2.94,,200.0,0.5,3.0,9.0,29.0,10.0,0.0,2.0,4.0,4.0,5.0,4.0,5.0,5.0,5.0,1.0,4.0,3.0,4.0,1.0,5.0,1.0,3.0,58.0,2000.0,0.0,BI,0.0,1.0,3.0,6.0,,1.0
pvcmlcbn,leem1,rpejdnjv,12,,0,rpejdnjv_6,,0,10.0,21.0,,,,,,,,217.0,rpejdnjv_3,0.0,8.0,8.0,5.0,0.0,8.0,87.833,67.0,24.196,5.0,1.0,0.0,100.0,50.0,45.49,48.32,2.86,,400.0,0.5,5.0,4.0,29.0,20.0,0.0,5.0,4.0,4.0,5.0,4.0,4.0,1.0,5.0,1.0,5.0,4.0,4.0,1.0,4.0,1.0,4.0,61.0,1999.0,1.0,DZ,0.0,1.0,2.0,12.0,,1.0
2nz72whh,leem4,rpejdnjv,12,,0,rpejdnjv_2,,0,3.0,17.0,,,,,,,,197.0,rpejdnjv_7,0.0,8.0,8.0,8.0,0.0,0.0,92.5,55.833,7.815,5.0,2.0,0.0,100.0,50.0,45.49,36.09,2.53,,2.0,0.25,5.0,3.0,31.0,0.0,0.0,4.0,2.0,3.0,3.0,3.0,4.0,2.0,5.0,5.0,5.0,2.0,4.0,3.0,4.0,2.0,3.0,52.0,1995.0,1.0,FR,0.0,1.0,3.0,6.0,,1.0
ya5a8sr3,leem9,rpejdnjv,12,,0,rpejdnjv_4,,0,10.0,22.0,,,,,,,,195.0,rpejdnjv_6,1.0,8.0,8.0,8.0,0.0,0.0,92.5,54.333,5.821,6.0,2.0,0.0,100.0,50.0,45.49,44.65,2.96,,400.0,0.5,3.0,6.0,15.0,10.0,0.0,1.0,3.0,1.0,5.0,5.0,5.0,5.0,4.0,2.0,5.0,1.0,3.0,3.0,4.0,3.0,5.0,56.0,1998.0,0.0,HT,0.0,1.0,2.0,0.0,,1.0
weolk6ul,leem16,rpejdnjv,12,,0,rpejdnjv_3,,0,6.0,21.0,,,,,,,,190.0,rpejdnjv_2,0.0,8.0,8.0,3.0,0.0,3.0,87.833,66.833,23.986,5.0,2.0,0.0,100.0,50.0,45.49,49.13,2.82,,200.0,0.5,8.0,6.0,15.0,20.0,0.0,2.0,5.0,2.0,5.0,1.0,5.0,5.0,5.0,5.0,5.0,1.0,4.0,2.0,2.0,3.0,5.0,59.0,1998.0,0.0,MA,0.0,1.0,5.0,11.0,,1.0
7kvnqzhv,leem8,rpejdnjv,12,,0,rpejdnjv_2,,1,7.0,17.0,,,,,,,,260.0,rpejdnjv_8,0.0,8.0,8.0,3.0,4.0,5.0,83.167,72.5,34.152,3.0,2.0,8.0,85.0,85.0,45.49,37.86,2.62,,200.0,0.5,3.0,9.0,30.0,10.0,0.0,1.0,4.0,4.0,5.0,5.0,4.0,5.0,5.0,4.0,5.0,3.0,2.0,4.0,5.0,5.0,4.0,46.0,1995.0,0.0,BJ,0.0,1.0,3.0,8.0,,0.0
ybkwbvii,leem6,rpejdnjv,12,,0,rpejdnjv_5,,0,6.0,16.0,,,,,,,,258.0,rpejdnjv_10,0.0,8.0,8.0,8.0,0.0,0.0,92.5,55.833,7.815,3.0,2.0,8.0,85.0,85.0,45.49,33.92,2.42,,60.0,5.5,2.0,2.0,30.0,10.0,0.0,1.0,3.0,2.0,4.0,4.0,4.0,5.0,5.0,2.0,4.0,3.0,4.0,2.0,4.0,4.0,5.0,53.0,1995.0,0.0,IT,0.0,1.0,5.0,6.0,,1.0
emg0d2w7,leem2,rpejdnjv,12,,0,rpejdnjv_6,,1,4.0,21.0,,,,,,,,177.0,rpejdnjv_10,0.0,8.0,8.0,6.0,0.0,5.0,89.5,63.0,18.217,3.0,2.0,8.0,85.0,85.0,45.49,68.29,1.86,,200.0,0.5,3.0,12.0,30.0,20.0,2.0,1.0,2.0,2.0,5.0,5.0,5.0,5.0,5.0,2.0,4.0,2.0,4.0,2.0,4.0,3.0,4.0,54.0,1992.0,0.0,CD,0.0,1.0,5.0,6.0,,1.0
wg2u2li2,leem12,rpejdnjv,12,,0,rpejdnjv_4,,1,4.0,22.0,,,,,,,,168.0,rpejdnjv_4,0.0,8.0,8.0,0.0,4.0,8.0,80.0,80.0,45.0,2.0,2.0,8.0,100.0,50.0,45.49,49.54,2.8,,2.0,0.5,5.0,4.0,29.0,20.0,1.0,5.0,3.0,4.0,5.0,2.0,5.0,2.0,5.0,1.0,5.0,1.0,5.0,1.0,5.0,3.0,5.0,66.0,1998.0,1.0,FR,0.0,1.0,4.0,2.0,,1.0
cf9sd7cr,leem7,rpejdnjv,12,,0,rpejdnjv_1,,0,5.0,18.0,,,,,,,,217.0,rpejdnjv_6,0.0,8.0,8.0,8.0,0.0,0.0,92.5,55.833,7.815,6.0,2.0,0.0,100.0,50.0,45.49,49.68,2.79,,200.0,0.5,3.0,9.0,15.0,10.0,0.0,1.0,5.0,2.0,5.0,2.0,5.0,1.0,5.0,2.0,5.0,1.0,5.0,1.0,3.0,2.0,5.0,69.0,1996.0,0.0,FR,0.0,1.0,5.0,26.0,,1.0
d3a3pcnp,leem15,rpejdnjv,12,,0,rpejdnjv_3,,0,7.0,21.0,,,,,,,,197.0,rpejdnjv_5,0.0,8.0,8.0,8.0,0.0,0.0,92.5,55.833,7.815,6.0,1.0,0.0,100.0,50.0,45.49,48.32,2.86,,2.0,0.25,5.0,4.0,15.0,20.0,0.0,6.0,3.0,3.0,4.0,3.0,5.0,4.0,4.0,1.0,4.0,1.0,4.0,1.0,4.0,3.0,5.0,59.0,1994.0,0.0,FR,0.0,0.0,5.0,2.0,5.0,1.0
lwd3fp9l,leem18,rpejdnjv,12,,0,rpejdnjv_6,,0,7.0,21.0,,,,,,,,197.0,rpejdnjv_2,0.0,8.0,8.0,8.0,0.0,0.0,92.5,55.833,7.815,5.0,2.0,0.0,100.0,50.0,45.49,3.36,0.89,,200.0,0.5,3.0,18.0,15.0,20.0,0.0,2.0,4.0,4.0,4.0,4.0,4.0,4.0,3.0,4.0,4.0,4.0,3.0,4.0,4.0,3.0,4.0,45.0,1994.0,1.0,FR,2.0,1.0,5.0,7.0,,1.0
z6p7eajj,leem14,rpejdnjv,12,,0,rpejdnjv_2,,0,7.0,17.0,,,,,,,,260.0,rpejdnjv_4,0.0,8.0,5.0,4.0,4.0,2.0,82.667,69.667,31.05,2.0,2.0,8.0,100.0,50.0,45.49,44.92,2.97,,1.0,0.5,2.0,4.0,15.0,20.0,2.0,2.0,4.0,3.0,4.0,4.0,5.0,4.0,5.0,1.0,4.0,1.0,4.0,3.0,4.0,2.0,5.0,59.0,2002.0,0.0,FR,0.0,1.0,1.0,6.0,,1.0
eh6ljriq,leem10,rpejdnjv,12,,0,rpejdnjv_1,,0,8.0,18.0,,,,,,,,258.0,rpejdnjv_9,4.0,5.0,3.0,7.0,2.0,2.0,84.5,54.833,7.974,3.0,1.0,3.0,63.0,94.0,45.49,49.54,2.8,,200.0,0.5,3.0,9.0,30.0,10.0,1.0,0.0,3.0,2.0,4.0,4.0,4.0,4.0,5.0,1.0,4.0,4.0,2.0,4.0,4.0,5.0,4.0,48.0,1994.0,0.0,DZ,0.0,1.0,5.0,16.0,,1.0
vmt5487m,leem17,rpejdnjv,12,,0,rpejdnjv_4,,0,8.0,22.0,,,,,,,,186.0,rpejdnjv_3,4.0,8.0,8.0,8.0,0.0,0.0,92.5,50.0,0.0,5.0,1.0,0.0,100.0,50.0,45.49,42.88,2.87,,200.0,10.0,2.0,4.0,8.0,1.0,0.0,2.0,1.0,2.0,3.0,3.0,1.0,1.0,3.0,1.0,2.0,1.0,1.0,1.0,1.0,4.0,5.0,46.0,2000.0,0.0,FR,0.0,1.0,3.0,15.0,,1.0
5jr55zaa,leem3,rpejdnjv,12,,0,rpejdnjv_1,,1,5.0,18.0,,,,,,,,217.0,rpejdnjv_8,0.0,8.0,8.0,3.0,0.0,8.0,86.333,70.5,29.433,3.0,2.0,8.0,85.0,85.0,45.49,44.65,2.96,,2.0,0.5,3.0,6.0,30.0,20.0,0.0,3.0,4.0,2.0,5.0,1.0,5.0,1.0,5.0,2.0,5.0,1.0,4.0,2.0,5.0,1.0,5.0,70.0,1996.0,0.0,FR,0.0,1.0,5.0,26.0,,1.0
nwik6h47,leem13,rpejdnjv,12,,0,rpejdnjv_5,,0,6.0,16.0,,,,,,,,258.0,rpejdnjv_7,0.0,8.0,8.0,8.0,4.0,8.0,85.833,65.833,23.838,5.0,2.0,0.0,100.0,50.0,45.49,47.37,2.91,,400.0,0.5,1.0,9.0,15.0,10.0,0.0,1.0,3.0,4.0,4.0,5.0,4.0,4.0,4.0,4.0,5.0,3.0,4.0,4.0,4.0,4.0,4.0,46.0,1997.0,1.0,FR,0.0,1.0,5.0,15.0,,1.0
zck3obfr,leem5,rpejdnjv,13,,0,rpejdnjv_5,,0,4.0,16.0,,,,,,,,222.0,rpejdnjv_5,0.0,8.0,8.0,3.0,4.0,8.0,82.167,74.667,37.482,6.0,1.0,0.0,100.0,50.0,74.67,74.13,2.97,,2.0,0.25,5.0,12.0,30.0,10.0,0.0,4.0,3.0,2.0,3.0,3.0,5.0,3.0,5.0,2.0,5.0,2.0,3.0,1.0,4.0,2.0,3.0,58.0,1994.0,1.0,FR,0.0,1.0,6.0,17.0,,1.0
nkp7u01x,leem11,rpejdnjv,13,,0,rpejdnjv_3,,0,6.0,21.0,,,,,,,,190.0,rpejdnjv_9,0.0,8.0,8.0,7.0,0.0,0.0,91.833,57.667,10.386,3.0,1.0,3.0,63.0,94.0,74.67,71.96,2.86,,200.0,0.5,3.0,9.0,29.0,10.0,0.0,2.0,4.0,4.0,5.0,4.0,5.0,5.0,5.0,1.0,4.0,3.0,4.0,1.0,5.0,1.0,3.0,58.0,2000.0,0.0,BI,0.0,1.0,3.0,6.0,,1.0
pvcmlcbn,leem1,rpejdnjv,13,,0,rpejdnjv_6,,0,6.0,24.0,,,,,,,,150.0,rpejdnjv_3,0.0,8.0,8.0,5.0,0.0,8.0,87.833,67.0,24.196,5.0,1.0,0.0,100.0,50.0,74.67,74.41,2.99,,400.0,0.5,5.0,4.0,29.0,20.0,0.0,5.0,4.0,4.0,5.0,4.0,4.0,1.0,5.0,1.0,5.0,4.0,4.0,1.0,4.0,1.0,4.0,61.0,1999.0,1.0,DZ,0.0,1.0,2.0,12.0,,1.0
2nz72whh,leem4,rpejdnjv,13,,0,rpejdnjv_2,,0,5.0,21.0,,,,,,,,183.0,rpejdnjv_7,0.0,8.0,8.0,8.0,0.0,0.0,92.5,55.833,7.815,5.0,2.0,0.0,100.0,50.0,74.67,76.99,2.88,,2.0,0.25,5.0,3.0,31.0,0.0,0.0,4.0,2.0,3.0,3.0,3.0,4.0,2.0,5.0,5.0,5.0,2.0,4.0,3.0,4.0,2.0,3.0,52.0,1995.0,1.0,FR,0.0,1.0,3.0,6.0,,1.0
ya5a8sr3,leem9,rpejdnjv,13,,0,rpejdnjv_4,,0,8.0,22.0,,,,,,,,186.0,rpejdnjv_6,1.0,8.0,8.0,8.0,0.0,0.0,92.5,54.333,5.821,6.0,2.0,0.0,100.0,50.0,74.67,66.8,2.61,,400.0,0.5,3.0,6.0,15.0,10.0,0.0,1.0,3.0,1.0,5.0,5.0,5.0,5.0,4.0,2.0,5.0,1.0,3.0,3.0,4.0,3.0,5.0,56.0,1998.0,0.0,HT,0.0,1.0,2.0,0.0,,1.0
weolk6ul,leem16,rpejdnjv,13,,0,rpejdnjv_3,,0,8.0,21.0,,,,,,,,204.0,rpejdnjv_2,0.0,8.0,8.0,3.0,0.0,3.0,87.833,66.833,23.986,5.0,2.0,0.0,100.0,50.0,74.67,77.12,2.88,,200.0,0.5,8.0,6.0,15.0,20.0,0.0,2.0,5.0,2.0,5.0,1.0,5.0,5.0,5.0,5.0,5.0,1.0,4.0,2.0,2.0,3.0,5.0,59.0,1998.0,0.0,MA,0.0,1.0,5.0,11.0,,1.0
7kvnqzhv,leem8,rpejdnjv,13,,0,rpejdnjv_2,,1,8.0,21.0,,,,,,,,204.0,rpejdnjv_8,0.0,8.0,8.0,3.0,4.0,5.0,83.167,72.5,34.152,3.0,2.0,8.0,85.0,85.0,74.67,66.53,2.59,,200.0,0.5,3.0,9.0,30.0,10.0,0.0,1.0,4.0,4.0,5.0,5.0,4.0,5.0,5.0,4.0,5.0,3.0,2.0,4.0,5.0,5.0,4.0,46.0,1995.0,0.0,BJ,0.0,1.0,3.0,8.0,,0.0
ybkwbvii,leem6,rpejdnjv,13,,0,rpejdnjv_5,,0,5.0,16.0,,,,,,,,240.0,rpejdnjv_10,0.0,8.0,8.0,8.0,0.0,0.0,92.5,55.833,7.815,3.0,2.0,8.0,85.0,85.0,74.67,43.83,1.46,,60.0,5.5,2.0,2.0,30.0,10.0,0.0,1.0,3.0,2.0,4.0,4.0,4.0,5.0,5.0,2.0,4.0,3.0,4.0,2.0,4.0,4.0,5.0,53.0,1995.0,0.0,IT,0.0,1.0,5.0,6.0,,1.0
emg0d2w7,leem2,rpejdnjv,13,,0,rpejdnjv_6,,0,8.0,24.0,,,,,,,,150.0,rpejdnjv_10,0.0,8.0,8.0,6.0,0.0,5.0,89.5,63.0,18.217,3.0,2.0,8.0,85.0,85.0,74.67,74.27,2.98,,200.0,0.5,3.0,12.0,30.0,20.0,2.0,1.0,2.0,2.0,5.0,5.0,5.0,5.0,5.0,2.0,4.0,2.0,4.0,2.0,4.0,3.0,4.0,54.0,1992.0,0.0,CD,0.0,1.0,5.0,6.0,,1.0
wg2u2li2,leem12,rpejdnjv,13,,0,rpejdnjv_4,,0,4.0,22.0,,,,,,,,168.0,rpejdnjv_4,0.0,8.0,8.0,0.0,4.0,8.0,80.0,80.0,45.0,2.0,2.0,8.0,100.0,50.0,74.67,77.67,2.85,,2.0,0.5,5.0,4.0,29.0,20.0,1.0,5.0,3.0,4.0,5.0,2.0,5.0,2.0,5.0,1.0,5.0,1.0,5.0,1.0,5.0,3.0,5.0,66.0,1998.0,1.0,FR,0.0,1.0,4.0,2.0,,1.0
cf9sd7cr,leem7,rpejdnjv,13,,0,rpejdnjv_1,,0,6.0,19.0,,,,,,,,217.0,rpejdnjv_6,0.0,8.0,8.0,8.0,0.0,0.0,92.5,55.833,7.815,6.0,2.0,0.0,100.0,50.0,74.67,78.62,2.8,,200.0,0.5,3.0,9.0,15.0,10.0,0.0,1.0,5.0,2.0,5.0,2.0,5.0,1.0,5.0,2.0,5.0,1.0,5.0,1.0,3.0,2.0,5.0,69.0,1996.0,0.0,FR,0.0,1.0,5.0,26.0,,1.0
d3a3pcnp,leem15,rpejdnjv,13,,0,rpejdnjv_3,,1,7.0,21.0,,,,,,,,197.0,rpejdnjv_5,0.0,8.0,8.0,8.0,0.0,0.0,92.5,55.833,7.815,6.0,1.0,0.0,100.0,50.0,74.67,75.08,2.98,,2.0,0.25,5.0,4.0,15.0,20.0,0.0,6.0,3.0,3.0,4.0,3.0,5.0,4.0,4.0,1.0,4.0,1.0,4.0,1.0,4.0,3.0,5.0,59.0,1994.0,0.0,FR,0.0,0.0,5.0,2.0,5.0,1.0
lwd3fp9l,leem18,rpejdnjv,13,,0,rpejdnjv_6,,1,10.0,24.0,,,,,,,,150.0,rpejdnjv_2,0.0,8.0,8.0,8.0,0.0,0.0,92.5,55.833,7.815,5.0,2.0,0.0,100.0,50.0,74.67,80.25,2.72,,200.0,0.5,3.0,18.0,15.0,20.0,0.0,2.0,4.0,4.0,4.0,4.0,4.0,4.0,3.0,4.0,4.0,4.0,3.0,4.0,4.0,3.0,4.0,45.0,1994.0,1.0,FR,2.0,1.0,5.0,7.0,,1.0
z6p7eajj,leem14,rpejdnjv,13,,0,rpejdnjv_2,,0,8.0,21.0,,,,,,,,204.0,rpejdnjv_4,0.0,8.0,5.0,4.0,4.0,2.0,82.667,69.667,31.05,2.0,2.0,8.0,100.0,50.0,74.67,65.98,2.57,,1.0,0.5,2.0,4.0,15.0,20.0,2.0,2.0,4.0,3.0,4.0,4.0,5.0,4.0,5.0,1.0,4.0,1.0,4.0,3.0,4.0,2.0,5.0,59.0,2002.0,0.0,FR,0.0,1.0,1.0,6.0,,1.0
eh6ljriq,leem10,rpejdnjv,13,,0,rpejdnjv_1,,0,6.0,19.0,,,,,,,,217.0,rpejdnjv_9,4.0,5.0,3.0,7.0,2.0,2.0,84.5,54.833,7.974,3.0,1.0,3.0,63.0,94.0,74.67,62.18,2.38,,200.0,0.5,3.0,9.0,30.0,10.0,1.0,0.0,3.0,2.0,4.0,4.0,4.0,4.0,5.0,1.0,4.0,4.0,2.0,4.0,4.0,5.0,4.0,48.0,1994.0,0.0,DZ,0.0,1.0,5.0,16.0,,1.0
vmt5487m,leem17,rpejdnjv,13,,0,rpejdnjv_4,,1,10.0,22.0,,,,,,,,195.0,rpejdnjv_3,4.0,8.0,8.0,8.0,0.0,0.0,92.5,50.0,0.0,5.0,1.0,0.0,100.0,50.0,74.67,67.48,2.64,,200.0,10.0,2.0,4.0,8.0,1.0,0.0,2.0,1.0,2.0,3.0,3.0,1.0,1.0,3.0,1.0,2.0,1.0,1.0,1.0,1.0,4.0,5.0,46.0,2000.0,0.0,FR,0.0,1.0,3.0,15.0,,1.0
5jr55zaa,leem3,rpejdnjv,13,,0,rpejdnjv_1,,1,7.0,19.0,,,,,,,,228.0,rpejdnjv_8,0.0,8.0,8.0,3.0,0.0,8.0,86.333,70.5,29.433,3.0,2.0,8.0,85.0,85.0,74.67,70.87,2.81,,2.0,0.5,3.0,6.0,30.0,20.0,0.0,3.0,4.0,2.0,5.0,1.0,5.0,1.0,5.0,2.0,5.0,1.0,4.0,2.0,5.0,1.0,5.0,70.0,1996.0,0.0,FR,0.0,1.0,5.0,26.0,,1.0
nwik6h47,leem13,rpejdnjv,13,,0,rpejdnjv_5,,1,7.0,16.0,,,,,,,,276.0,rpejdnjv_7,0.0,8.0,8.0,8.0,4.0,8.0,85.833,65.833,23.838,5.0,2.0,0.0,100.0,50.0,74.67,78.21,2.82,,400.0,0.5,1.0,9.0,15.0,10.0,0.0,1.0,3.0,4.0,4.0,5.0,4.0,4.0,4.0,4.0,5.0,3.0,4.0,4.0,4.0,4.0,4.0,46.0,1997.0,1.0,FR,0.0,1.0,5.0,15.0,,1.0
zck3obfr,leem5,rpejdnjv,14,,0,rpejdnjv_5,,0,4.0,22.0,,,,,,,,168.0,rpejdnjv_5,0.0,8.0,8.0,3.0,4.0,8.0,82.167,74.667,37.482,6.0,1.0,0.0,100.0,50.0,37.6,34.05,2.82,,2.0,0.25,5.0,12.0,30.0,10.0,0.0,4.0,3.0,2.0,3.0,3.0,5.0,3.0,5.0,2.0,5.0,2.0,3.0,1.0,4.0,2.0,3.0,58.0,1994.0,1.0,FR,0.0,1.0,6.0,17.0,,1.0
nkp7u01x,leem11,rpejdnjv,14,,0,rpejdnjv_3,,0,6.0,18.0,,,,,,,,231.0,rpejdnjv_9,0.0,8.0,8.0,7.0,0.0,0.0,91.833,57.667,10.386,3.0,1.0,3.0,63.0,94.0,37.6,37.45,2.99,,200.0,0.5,3.0,9.0,29.0,10.0,0.0,2.0,4.0,4.0,5.0,4.0,5.0,5.0,5.0,1.0,4.0,3.0,4.0,1.0,5.0,1.0,3.0,58.0,2000.0,0.0,BI,0.0,1.0,3.0,6.0,,1.0
pvcmlcbn,leem1,rpejdnjv,14,,0,rpejdnjv_6,,1,5.0,22.0,,,,,,,,172.0,rpejdnjv_3,0.0,8.0,8.0,5.0,0.0,8.0,87.833,67.0,24.196,5.0,1.0,0.0,100.0,50.0,37.6,40.98,2.83,,400.0,0.5,5.0,4.0,29.0,20.0,0.0,5.0,4.0,4.0,5.0,4.0,4.0,1.0,5.0,1.0,5.0,4.0,4.0,1.0,4.0,1.0,4.0,61.0,1999.0,1.0,DZ,0.0,1.0,2.0,12.0,,1.0
2nz72whh,leem4,rpejdnjv,14,,0,rpejdnjv_2,,0,5.0,15.0,,,,,,,,251.0,rpejdnjv_7,0.0,8.0,8.0,8.0,0.0,0.0,92.5,55.833,7.815,5.0,2.0,0.0,100.0,50.0,37.6,29.3,2.58,,2.0,0.25,5.0,3.0,31.0,0.0,0.0,4.0,2.0,3.0,3.0,3.0,4.0,2.0,5.0,5.0,5.0,2.0,4.0,3.0,4.0,2.0,3.0,52.0,1995.0,1.0,FR,0.0,1.0,3.0,6.0,,1.0
ya5a8sr3,leem9,rpejdnjv,14,,0,rpejdnjv_4,,0,4.0,11.0,,,,,,,,267.0,rpejdnjv_6,1.0,8.0,8.0,8.0,0.0,0.0,92.5,54.333,5.821,6.0,2.0,0.0,100.0,50.0,37.6,31.74,2.71,,400.0,0.5,3.0,6.0,15.0,10.0,0.0,1.0,3.0,1.0,5.0,5.0,5.0,5.0,4.0,2.0,5.0,1.0,3.0,3.0,4.0,3.0,5.0,56.0,1998.0,0.0,HT,0.0,1.0,2.0,0.0,,1.0
weolk6ul,leem16,rpejdnjv,14,,0,rpejdnjv_3,,1,5.0,18.0,,,,,,,,217.0,rpejdnjv_2,0.0,8.0,8.0,3.0,0.0,3.0,87.833,66.833,23.986,5.0,2.0,0.0,100.0,50.0,37.6,36.09,2.92,,200.0,0.5,8.0,6.0,15.0,20.0,0.0,2.0,5.0,2.0,5.0,1.0,5.0,5.0,5.0,5.0,5.0,1.0,4.0,2.0,2.0,3.0,5.0,59.0,1998.0,0.0,MA,0.0,1.0,5.0,11.0,,1.0
7kvnqzhv,leem8,rpejdnjv,14,,0,rpejdnjv_2,,0,4.0,15.0,,,,,,,,231.0,rpejdnjv_8,0.0,8.0,8.0,3.0,4.0,5.0,83.167,72.5,34.152,3.0,2.0,8.0,85.0,85.0,37.6,21.96,2.22,,200.0,0.5,3.0,9.0,30.0,10.0,0.0,1.0,4.0,4.0,5.0,5.0,4.0,5.0,5.0,4.0,5.0,3.0,2.0,4.0,5.0,5.0,4.0,46.0,1995.0,0.0,BJ,0.0,1.0,3.0,8.0,,0.0
ybkwbvii,leem6,rpejdnjv,14,,0,rpejdnjv_5,,0,10.0,22.0,,,,,,,,195.0,rpejdnjv_10,0.0,8.0,8.0,8.0,0.0,0.0,92.5,55.833,7.815,3.0,2.0,8.0,85.0,85.0,37.6,16.39,1.94,,60.0,5.5,2.0,2.0,30.0,10.0,0.0,1.0,3.0,2.0,4.0,4.0,4.0,5.0,5.0,2.0,4.0,3.0,4.0,2.0,4.0,4.0,5.0,53.0,1995.0,0.0,IT,0.0,1.0,5.0,6.0,,1.0
emg0d2w7,leem2,rpejdnjv,14,,0,rpejdnjv_6,,0,7.0,22.0,,,,,,,,181.0,rpejdnjv_10,0.0,8.0,8.0,6.0,0.0,5.0,89.5,63.0,18.217,3.0,2.0,8.0,85.0,85.0,37.6,73.18,1.22,,200.0,0.5,3.0,12.0,30.0,20.0,2.0,1.0,2.0,2.0,5.0,5.0,5.0,5.0,5.0,2.0,4.0,2.0,4.0,2.0,4.0,3.0,4.0,54.0,1992.0,0.0,CD,0.0,1.0,5.0,6.0,,1.0
wg2u2li2,leem12,rpejdnjv,14,,0,rpejdnjv_4,,0,7.0,11.0,,,,,,,,354.0,rpejdnjv_4,0.0,8.0,8.0,0.0,4.0,8.0,80.0,80.0,45.0,2.0,2.0,8.0,100.0,50.0,37.6,35.14,2.88,,2.0,0.5,5.0,4.0,29.0,20.0,1.0,5.0,3.0,4.0,5.0,2.0,5.0,2.0,5.0,1.0,5.0,1.0,5.0,1.0,5.0,3.0,5.0,66.0,1998.0,1.0,FR,0.0,1.0,4.0,2.0,,1.0
cf9sd7cr,leem7,rpejdnjv,14,,0,rpejdnjv_1,,1,4.0,17.0,,,,,,,,213.0,rpejdnjv_6,0.0,8.0,8.0,8.0,0.0,0.0,92.5,55.833,7.815,6.0,2.0,0.0,100.0,50.0,37.6,28.75,2.56,,200.0,0.5,3.0,9.0,15.0,10.0,0.0,1.0,5.0,2.0,5.0,2.0,5.0,1.0,5.0,2.0,5.0,1.0,5.0,1.0,3.0,2.0,5.0,69.0,1996.0,0.0,FR,0.0,1.0,5.0,26.0,,1.0
d3a3pcnp,leem15,rpejdnjv,14,,0,rpejdnjv_3,,0,7.0,18.0,,,,,,,,244.0,rpejdnjv_5,0.0,8.0,8.0,8.0,0.0,0.0,92.5,55.833,7.815,6.0,1.0,0.0,100.0,50.0,37.6,23.45,2.29,,2.0,0.25,5.0,4.0,15.0,20.0,0.0,6.0,3.0,3.0,4.0,3.0,5.0,4.0,4.0,1.0,4.0,1.0,4.0,1.0,4.0,3.0,5.0,59.0,1994.0,0.0,FR,0.0,0.0,5.0,2.0,5.0,1.0
lwd3fp9l,leem18,rpejdnjv,14,,0,rpejdnjv_6,,0,10.0,22.0,,,,,,,,195.0,rpejdnjv_2,0.0,8.0,8.0,8.0,0.0,0.0,92.5,55.833,7.815,5.0,2.0,0.0,100.0,50.0,37.6,22.1,2.23,,200.0,0.5,3.0,18.0,15.0,20.0,0.0,2.0,4.0,4.0,4.0,4.0,4.0,4.0,3.0,4.0,4.0,4.0,3.0,4.0,4.0,3.0,4.0,45.0,1994.0,1.0,FR,2.0,1.0,5.0,7.0,,1.0
z6p7eajj,leem14,rpejdnjv,14,,0,rpejdnjv_2,,1,6.0,15.0,,,,,,,,271.0,rpejdnjv_4,0.0,8.0,5.0,4.0,4.0,2.0,82.667,69.667,31.05,2.0,2.0,8.0,100.0,50.0,37.6,31.88,2.71,,1.0,0.5,2.0,4.0,15.0,20.0,2.0,2.0,4.0,3.0,4.0,4.0,5.0,4.0,5.0,1.0,4.0,1.0,4.0,3.0,4.0,2.0,5.0,59.0,2002.0,0.0,FR,0.0,1.0,1.0,6.0,,1.0
eh6ljriq,leem10,rpejdnjv,14,,0,rpejdnjv_1,,0,7.0,17.0,,,,,,,,260.0,rpejdnjv_9,4.0,5.0,3.0,7.0,2.0,2.0,84.5,54.833,7.974,3.0,1.0,3.0,63.0,94.0,37.6,41.53,2.8,,200.0,0.5,3.0,9.0,30.0,10.0,1.0,0.0,3.0,2.0,4.0,4.0,4.0,4.0,5.0,1.0,4.0,4.0,2.0,4.0,4.0,5.0,4.0,48.0,1994.0,0.0,DZ,0.0,1.0,5.0,16.0,,1.0
vmt5487m,leem17,rpejdnjv,14,,0,rpejdnjv_4,,1,0.0,11.0,,,,,,,,150.0,rpejdnjv_3,4.0,8.0,8.0,8.0,0.0,0.0,92.5,50.0,0.0,5.0,1.0,0.0,100.0,50.0,37.6,27.94,2.52,,200.0,10.0,2.0,4.0,8.0,1.0,0.0,2.0,1.0,2.0,3.0,3.0,1.0,1.0,3.0,1.0,2.0,1.0,1.0,1.0,1.0,4.0,5.0,46.0,2000.0,0.0,FR,0.0,1.0,3.0,15.0,,1.0
5jr55zaa,leem3,rpejdnjv,14,,0,rpejdnjv_1,,0,6.0,17.0,,,,,,,,244.0,rpejdnjv_8,0.0,8.0,8.0,3.0,0.0,8.0,86.333,70.5,29.433,3.0,2.0,8.0,85.0,85.0,37.6,27.94,2.52,,2.0,0.5,3.0,6.0,30.0,20.0,0.0,3.0,4.0,2.0,5.0,1.0,5.0,1.0,5.0,2.0,5.0,1.0,4.0,2.0,5.0,1.0,5.0,70.0,1996.0,0.0,FR,0.0,1.0,5.0,26.0,,1.0
nwik6h47,leem13,rpejdnjv,14,,0,rpejdnjv_5,,1,8.0,22.0,,,,,,,,186.0,rpejdnjv_7,0.0,8.0,8.0,8.0,4.0,8.0,85.833,65.833,23.838,5.0,2.0,0.0,100.0,50.0,37.6,34.32,2.84,,400.0,0.5,1.0,9.0,15.0,10.0,0.0,1.0,3.0,4.0,4.0,5.0,4.0,4.0,4.0,4.0,5.0,3.0,4.0,4.0,4.0,4.0,4.0,46.0,1997.0,1.0,FR,0.0,1.0,5.0,15.0,,1.0
zck3obfr,leem5,rpejdnjv,15,,0,rpejdnjv_5,,0,4.0,14.0,,,,,,,,240.0,rpejdnjv_5,0.0,8.0,8.0,3.0,4.0,8.0,82.167,74.667,37.482,6.0,1.0,0.0,100.0,50.0,7.76,2.53,2.74,,2.0,0.25,5.0,12.0,30.0,10.0,0.0,4.0,3.0,2.0,3.0,3.0,5.0,3.0,5.0,2.0,5.0,2.0,3.0,1.0,4.0,2.0,3.0,58.0,1994.0,1.0,FR,0.0,1.0,6.0,17.0,,1.0
nkp7u01x,leem11,rpejdnjv,15,,0,rpejdnjv_3,,0,6.0,17.0,,,,,,,,244.0,rpejdnjv_9,0.0,8.0,8.0,7.0,0.0,0.0,91.833,57.667,10.386,3.0,1.0,3.0,63.0,94.0,7.76,4.57,2.84,,200.0,0.5,3.0,9.0,29.0,10.0,0.0,2.0,4.0,4.0,5.0,4.0,5.0,5.0,5.0,1.0,4.0,3.0,4.0,1.0,5.0,1.0,3.0,58.0,2000.0,0.0,BI,0.0,1.0,3.0,6.0,,1.0
pvcmlcbn,leem1,rpejdnjv,15,,0,rpejdnjv_6,,0,10.0,19.0,,,,,,,,262.0,rpejdnjv_3,0.0,8.0,8.0,5.0,0.0,8.0,87.833,67.0,24.196,5.0,1.0,0.0,100.0,50.0,7.76,8.24,2.98,,400.0,0.5,5.0,4.0,29.0,20.0,0.0,5.0,4.0,4.0,5.0,4.0,4.0,1.0,5.0,1.0,5.0,4.0,4.0,1.0,4.0,1.0,4.0,61.0,1999.0,1.0,DZ,0.0,1.0,2.0,12.0,,1.0
2nz72whh,leem4,rpejdnjv,15,,0,rpejdnjv_2,,0,5.0,12.0,,,,,,,,285.0,rpejdnjv_7,0.0,8.0,8.0,8.0,0.0,0.0,92.5,55.833,7.815,5.0,2.0,0.0,100.0,50.0,7.76,2.39,2.73,,2.0,0.25,5.0,3.0,31.0,0.0,0.0,4.0,2.0,3.0,3.0,3.0,4.0,2.0,5.0,5.0,5.0,2.0,4.0,3.0,4.0,2.0,3.0,52.0,1995.0,1.0,FR,0.0,1.0,3.0,6.0,,1.0
ya5a8sr3,leem9,rpejdnjv,15,,0,rpejdnjv_4,,0,10.0,24.0,,,,,,,,150.0,rpejdnjv_6,1.0,8.0,8.0,8.0,0.0,0.0,92.5,54.333,5.821,6.0,2.0,0.0,100.0,50.0,7.76,9.32,2.92,,400.0,0.5,3.0,6.0,15.0,10.0,0.0,1.0,3.0,1.0,5.0,5.0,5.0,5.0,4.0,2.0,5.0,1.0,3.0,3.0,4.0,3.0,5.0,56.0,1998.0,0.0,HT,0.0,1.0,2.0,0.0,,1.0
weolk6ul,leem16,rpejdnjv,15,,0,rpejdnjv_3,,0,5.0,17.0,,,,,,,,228.0,rpejdnjv_2,0.0,8.0,8.0,3.0,0.0,3.0,87.833,66.833,23.986,5.0,2.0,0.0,100.0,50.0,7.76,6.74,2.95,,200.0,0.5,8.0,6.0,15.0,20.0,0.0,2.0,5.0,2.0,5.0,1.0,5.0,5.0,5.0,5.0,5.0,1.0,4.0,2.0,2.0,3.0,5.0,59.0,1998.0,0.0,MA,0.0,1.0,5.0,11.0,,1.0
7kvnqzhv,leem8,rpejdnjv,15,,0,rpejdnjv_2,,0,5.0,12.0,,,,,,,,285.0,rpejdnjv_8,0.0,8.0,8.0,3.0,4.0,5.0,83.167,72.5,34.152,3.0,2.0,8.0,85.0,85.0,7.76,3.07,2.77,,200.0,0.5,3.0,9.0,30.0,10.0,0.0,1.0,4.0,4.0,5.0,5.0,4.0,5.0,5.0,4.0,5.0,3.0,2.0,4.0,5.0,5.0,4.0,46.0,1995.0,0.0,BJ,0.0,1.0,3.0,8.0,,0.0
ybkwbvii,leem6,rpejdnjv,15,,0,rpejdnjv_5,,0,4.0,14.0,,,,,,,,240.0,rpejdnjv_10,0.0,8.0,8.0,8.0,0.0,0.0,92.5,55.833,7.815,3.0,2.0,8.0,85.0,85.0,7.76,1.44,2.68,,60.0,5.5,2.0,2.0,30.0,10.0,0.0,1.0,3.0,2.0,4.0,4.0,4.0,5.0,5.0,2.0,4.0,3.0,4.0,2.0,4.0,4.0,5.0,53.0,1995.0,0.0,IT,0.0,1.0,5.0,6.0,,1.0
emg0d2w7,leem2,rpejdnjv,15,,0,rpejdnjv_6,,0,5.0,19.0,,,,,,,,206.0,rpejdnjv_10,0.0,8.0,8.0,6.0,0.0,5.0,89.5,63.0,18.217,3.0,2.0,8.0,85.0,85.0,7.76,60.55,0.36,,200.0,0.5,3.0,12.0,30.0,20.0,2.0,1.0,2.0,2.0,5.0,5.0,5.0,5.0,5.0,2.0,4.0,2.0,4.0,2.0,4.0,3.0,4.0,54.0,1992.0,0.0,CD,0.0,1.0,5.0,6.0,,1.0
wg2u2li2,leem12,rpejdnjv,15,,0,rpejdnjv_4,,1,6.0,24.0,,,,,,,,150.0,rpejdnjv_4,0.0,8.0,8.0,0.0,4.0,8.0,80.0,80.0,45.0,2.0,2.0,8.0,100.0,50.0,7.76,5.11,2.87,,2.0,0.5,5.0,4.0,29.0,20.0,1.0,5.0,3.0,4.0,5.0,2.0,5.0,2.0,5.0,1.0,5.0,1.0,5.0,1.0,5.0,3.0,5.0,66.0,1998.0,1.0,FR,0.0,1.0,4.0,2.0,,1.0
cf9sd7cr,leem7,rpejdnjv,15,,0,rpejdnjv_1,,0,5.0,15.0,,,,,,,,251.0,rpejdnjv_6,0.0,8.0,8.0,8.0,0.0,0.0,92.5,55.833,7.815,6.0,2.0,0.0,100.0,50.0,7.76,3.21,2.77,,200.0,0.5,3.0,9.0,15.0,10.0,0.0,1.0,5.0,2.0,5.0,2.0,5.0,1.0,5.0,2.0,5.0,1.0,5.0,1.0,3.0,2.0,5.0,69.0,1996.0,0.0,FR,0.0,1.0,5.0,26.0,,1.0
d3a3pcnp,leem15,rpejdnjv,15,,0,rpejdnjv_3,,1,6.0,17.0,,,,,,,,244.0,rpejdnjv_5,0.0,8.0,8.0,8.0,0.0,0.0,92.5,55.833,7.815,6.0,1.0,0.0,100.0,50.0,7.76,5.93,2.91,,2.0,0.25,5.0,4.0,15.0,20.0,0.0,6.0,3.0,3.0,4.0,3.0,5.0,4.0,4.0,1.0,4.0,1.0,4.0,1.0,4.0,3.0,5.0,59.0,1994.0,0.0,FR,0.0,0.0,5.0,2.0,5.0,1.0
lwd3fp9l,leem18,rpejdnjv,15,,0,rpejdnjv_6,,1,4.0,19.0,,,,,,,,195.0,rpejdnjv_2,0.0,8.0,8.0,8.0,0.0,0.0,92.5,55.833,7.815,5.0,2.0,0.0,100.0,50.0,7.76,0.76,2.65,,200.0,0.5,3.0,18.0,15.0,20.0,0.0,2.0,4.0,4.0,4.0,4.0,4.0,4.0,3.0,4.0,4.0,4.0,3.0,4.0,4.0,3.0,4.0,45.0,1994.0,1.0,FR,2.0,1.0,5.0,7.0,,1.0
z6p7eajj,leem14,rpejdnjv,15,,0,rpejdnjv_2,,1,2.0,12.0,,,,,,,,204.0,rpejdnjv_4,0.0,8.0,5.0,4.0,4.0,2.0,82.667,69.667,31.05,2.0,2.0,8.0,100.0,50.0,7.76,12.18,2.78,,1.0,0.5,2.0,4.0,15.0,20.0,2.0,2.0,4.0,3.0,4.0,4.0,5.0,4.0,5.0,1.0,4.0,1.0,4.0,3.0,4.0,2.0,5.0,59.0,2002.0,0.0,FR,0.0,1.0,1.0,6.0,,1.0
eh6ljriq,leem10,rpejdnjv,15,,0,rpejdnjv_1,,0,5.0,15.0,,,,,,,,251.0,rpejdnjv_9,4.0,5.0,3.0,7.0,2.0,2.0,84.5,54.833,7.974,3.0,1.0,3.0,63.0,94.0,7.76,9.6,2.91,,200.0,0.5,3.0,9.0,30.0,10.0,1.0,0.0,3.0,2.0,4.0,4.0,4.0,4.0,5.0,1.0,4.0,4.0,2.0,4.0,4.0,5.0,4.0,48.0,1994.0,0.0,DZ,0.0,1.0,5.0,16.0,,1.0
vmt5487m,leem17,rpejdnjv,15,,0,rpejdnjv_4,,0,8.0,24.0,,,,,,,,150.0,rpejdnjv_3,4.0,8.0,8.0,8.0,0.0,0.0,92.5,50.0,0.0,5.0,1.0,0.0,100.0,50.0,7.76,9.46,2.92,,200.0,10.0,2.0,4.0,8.0,1.0,0.0,2.0,1.0,2.0,3.0,3.0,1.0,1.0,3.0,1.0,2.0,1.0,1.0,1.0,1.0,4.0,5.0,46.0,2000.0,0.0,FR,0.0,1.0,3.0,15.0,,1.0
5jr55zaa,leem3,rpejdnjv,15,,0,rpejdnjv_1,,1,5.0,15.0,,,,,,,,251.0,rpejdnjv_8,0.0,8.0,8.0,3.0,0.0,8.0,86.333,70.5,29.433,3.0,2.0,8.0,85.0,85.0,7.76,12.18,2.78,,2.0,0.5,3.0,6.0,30.0,20.0,0.0,3.0,4.0,2.0,5.0,1.0,5.0,1.0,5.0,2.0,5.0,1.0,4.0,2.0,5.0,1.0,5.0,70.0,1996.0,0.0,FR,0.0,1.0,5.0,26.0,,1.0
nwik6h47,leem13,rpejdnjv,15,,0,rpejdnjv_5,,1,6.0,14.0,,,,,,,,285.0,rpejdnjv_7,0.0,8.0,8.0,8.0,4.0,8.0,85.833,65.833,23.838,5.0,2.0,0.0,100.0,50.0,7.76,5.93,2.91,,400.0,0.5,1.0,9.0,15.0,10.0,0.0,1.0,3.0,4.0,4.0,5.0,4.0,4.0,4.0,4.0,5.0,3.0,4.0,4.0,4.0,4.0,4.0,46.0,1997.0,1.0,FR,0.0,1.0,5.0,15.0,,1.0
zck3obfr,leem5,rpejdnjv,16,,0,rpejdnjv_5,,1,4.0,20.0,,,,,,,,186.0,rpejdnjv_5,0.0,8.0,8.0,3.0,4.0,8.0,82.167,74.667,37.482,6.0,1.0,0.0,100.0,50.0,,,,,2.0,0.25,5.0,12.0,30.0,10.0,0.0,4.0,3.0,2.0,3.0,3.0,5.0,3.0,5.0,2.0,5.0,2.0,3.0,1.0,4.0,2.0,3.0,58.0,1994.0,1.0,FR,0.0,1.0,6.0,17.0,,1.0
nkp7u01x,leem11,rpejdnjv,16,,0,rpejdnjv_3,,0,7.0,20.0,,,,,,,,213.0,rpejdnjv_9,0.0,8.0,8.0,7.0,0.0,0.0,91.833,57.667,10.386,3.0,1.0,3.0,63.0,94.0,,,,,200.0,0.5,3.0,9.0,29.0,10.0,0.0,2.0,4.0,4.0,5.0,4.0,5.0,5.0,5.0,1.0,4.0,3.0,4.0,1.0,5.0,1.0,3.0,58.0,2000.0,0.0,BI,0.0,1.0,3.0,6.0,,1.0
pvcmlcbn,leem1,rpejdnjv,16,,0,rpejdnjv_6,,0,10.0,25.0,,,,,,,,127.0,rpejdnjv_3,0.0,8.0,8.0,5.0,0.0,8.0,87.833,67.0,24.196,5.0,1.0,0.0,100.0,50.0,,,,,400.0,0.5,5.0,4.0,29.0,20.0,0.0,5.0,4.0,4.0,5.0,4.0,4.0,1.0,5.0,1.0,5.0,4.0,4.0,1.0,4.0,1.0,4.0,61.0,1999.0,1.0,DZ,0.0,1.0,2.0,12.0,,1.0
2nz72whh,leem4,rpejdnjv,16,,0,rpejdnjv_2,,0,5.0,16.0,,,,,,,,240.0,rpejdnjv_7,0.0,8.0,8.0,8.0,0.0,0.0,92.5,55.833,7.815,5.0,2.0,0.0,100.0,50.0,,,,,2.0,0.25,5.0,3.0,31.0,0.0,0.0,4.0,2.0,3.0,3.0,3.0,4.0,2.0,5.0,5.0,5.0,2.0,4.0,3.0,4.0,2.0,3.0,52.0,1995.0,1.0,FR,0.0,1.0,3.0,6.0,,1.0
ya5a8sr3,leem9,rpejdnjv,16,,0,rpejdnjv_4,,1,2.0,12.0,,,,,,,,204.0,rpejdnjv_6,1.0,8.0,8.0,8.0,0.0,0.0,92.5,54.333,5.821,6.0,2.0,0.0,100.0,50.0,,,,,400.0,0.5,3.0,6.0,15.0,10.0,0.0,1.0,3.0,1.0,5.0,5.0,5.0,5.0,4.0,2.0,5.0,1.0,3.0,3.0,4.0,3.0,5.0,56.0,1998.0,0.0,HT,0.0,1.0,2.0,0.0,,1.0
weolk6ul,leem16,rpejdnjv,16,,0,rpejdnjv_3,,0,8.0,20.0,,,,,,,,222.0,rpejdnjv_2,0.0,8.0,8.0,3.0,0.0,3.0,87.833,66.833,23.986,5.0,2.0,0.0,100.0,50.0,,,,,200.0,0.5,8.0,6.0,15.0,20.0,0.0,2.0,5.0,2.0,5.0,1.0,5.0,5.0,5.0,5.0,5.0,1.0,4.0,2.0,2.0,3.0,5.0,59.0,1998.0,0.0,MA,0.0,1.0,5.0,11.0,,1.0
7kvnqzhv,leem8,rpejdnjv,16,,0,rpejdnjv_2,,0,5.0,16.0,,,,,,,,240.0,rpejdnjv_8,0.0,8.0,8.0,3.0,4.0,5.0,83.167,72.5,34.152,3.0,2.0,8.0,85.0,85.0,,,,,200.0,0.5,3.0,9.0,30.0,10.0,0.0,1.0,4.0,4.0,5.0,5.0,4.0,5.0,5.0,4.0,5.0,3.0,2.0,4.0,5.0,5.0,4.0,46.0,1995.0,0.0,BJ,0.0,1.0,3.0,8.0,,0.0
ybkwbvii,leem6,rpejdnjv,16,,0,rpejdnjv_5,,0,8.0,20.0,,,,,,,,222.0,rpejdnjv_10,0.0,8.0,8.0,8.0,0.0,0.0,92.5,55.833,7.815,3.0,2.0,8.0,85.0,85.0,,,,,60.0,5.5,2.0,2.0,30.0,10.0,0.0,1.0,3.0,2.0,4.0,4.0,4.0,5.0,5.0,2.0,4.0,3.0,4.0,2.0,4.0,4.0,5.0,53.0,1995.0,0.0,IT,0.0,1.0,5.0,6.0,,1.0
emg0d2w7,leem2,rpejdnjv,16,,0,rpejdnjv_6,,1,5.0,25.0,,,,,,,,138.0,rpejdnjv_10,0.0,8.0,8.0,6.0,0.0,5.0,89.5,63.0,18.217,3.0,2.0,8.0,85.0,85.0,,,,,200.0,0.5,3.0,12.0,30.0,20.0,2.0,1.0,2.0,2.0,5.0,5.0,5.0,5.0,5.0,2.0,4.0,2.0,4.0,2.0,4.0,3.0,4.0,54.0,1992.0,0.0,CD,0.0,1.0,5.0,6.0,,1.0
wg2u2li2,leem12,rpejdnjv,16,,0,rpejdnjv_4,,0,4.0,12.0,,,,,,,,258.0,rpejdnjv_4,0.0,8.0,8.0,0.0,4.0,8.0,80.0,80.0,45.0,2.0,2.0,8.0,100.0,50.0,,,,,2.0,0.5,5.0,4.0,29.0,20.0,1.0,5.0,3.0,4.0,5.0,2.0,5.0,2.0,5.0,1.0,5.0,1.0,5.0,1.0,5.0,3.0,5.0,66.0,1998.0,1.0,FR,0.0,1.0,4.0,2.0,,1.0
cf9sd7cr,leem7,rpejdnjv,16,,0,rpejdnjv_1,,0,5.0,18.0,,,,,,,,217.0,rpejdnjv_6,0.0,8.0,8.0,8.0,0.0,0.0,92.5,55.833,7.815,6.0,2.0,0.0,100.0,50.0,,,,,200.0,0.5,3.0,9.0,15.0,10.0,0.0,1.0,5.0,2.0,5.0,2.0,5.0,1.0,5.0,2.0,5.0,1.0,5.0,1.0,3.0,2.0,5.0,69.0,1996.0,0.0,FR,0.0,1.0,5.0,26.0,,1.0
d3a3pcnp,leem15,rpejdnjv,16,,0,rpejdnjv_3,,1,5.0,20.0,,,,,,,,195.0,rpejdnjv_5,0.0,8.0,8.0,8.0,0.0,0.0,92.5,55.833,7.815,6.0,1.0,0.0,100.0,50.0,,,,,2.0,0.25,5.0,4.0,15.0,20.0,0.0,6.0,3.0,3.0,4.0,3.0,5.0,4.0,4.0,1.0,4.0,1.0,4.0,1.0,4.0,3.0,5.0,59.0,1994.0,0.0,FR,0.0,0.0,5.0,2.0,5.0,1.0
lwd3fp9l,leem18,rpejdnjv,16,,0,rpejdnjv_6,,0,10.0,25.0,,,,,,,,127.0,rpejdnjv_2,0.0,8.0,8.0,8.0,0.0,0.0,92.5,55.833,7.815,5.0,2.0,0.0,100.0,50.0,,,,,200.0,0.5,3.0,18.0,15.0,20.0,0.0,2.0,4.0,4.0,4.0,4.0,4.0,4.0,3.0,4.0,4.0,4.0,3.0,4.0,4.0,3.0,4.0,45.0,1994.0,1.0,FR,2.0,1.0,5.0,7.0,,1.0
z6p7eajj,leem14,rpejdnjv,16,,0,rpejdnjv_2,,1,6.0,16.0,,,,,,,,258.0,rpejdnjv_4,0.0,8.0,5.0,4.0,4.0,2.0,82.667,69.667,31.05,2.0,2.0,8.0,100.0,50.0,,,,,1.0,0.5,2.0,4.0,15.0,20.0,2.0,2.0,4.0,3.0,4.0,4.0,5.0,4.0,5.0,1.0,4.0,1.0,4.0,3.0,4.0,2.0,5.0,59.0,2002.0,0.0,FR,0.0,1.0,1.0,6.0,,1.0
eh6ljriq,leem10,rpejdnjv,16,,0,rpejdnjv_1,,1,7.0,18.0,,,,,,,,244.0,rpejdnjv_9,4.0,5.0,3.0,7.0,2.0,2.0,84.5,54.833,7.974,3.0,1.0,3.0,63.0,94.0,,,,,200.0,0.5,3.0,9.0,30.0,10.0,1.0,0.0,3.0,2.0,4.0,4.0,4.0,4.0,5.0,1.0,4.0,4.0,2.0,4.0,4.0,5.0,4.0,48.0,1994.0,0.0,DZ,0.0,1.0,5.0,16.0,,1.0
vmt5487m,leem17,rpejdnjv,16,,0,rpejdnjv_4,,0,6.0,12.0,,,,,,,,312.0,rpejdnjv_3,4.0,8.0,8.0,8.0,0.0,0.0,92.5,50.0,0.0,5.0,1.0,0.0,100.0,50.0,,,,,200.0,10.0,2.0,4.0,8.0,1.0,0.0,2.0,1.0,2.0,3.0,3.0,1.0,1.0,3.0,1.0,2.0,1.0,1.0,1.0,1.0,4.0,5.0,46.0,2000.0,0.0,FR,0.0,1.0,3.0,15.0,,1.0
5jr55zaa,leem3,rpejdnjv,16,,0,rpejdnjv_1,,0,6.0,18.0,,,,,,,,231.0,rpejdnjv_8,0.0,8.0,8.0,3.0,0.0,8.0,86.333,70.5,29.433,3.0,2.0,8.0,85.0,85.0,,,,,2.0,0.5,3.0,6.0,30.0,20.0,0.0,3.0,4.0,2.0,5.0,1.0,5.0,1.0,5.0,2.0,5.0,1.0,4.0,2.0,5.0,1.0,5.0,70.0,1996.0,0.0,FR,0.0,1.0,5.0,26.0,,1.0
nwik6h47,leem13,rpejdnjv,16,,0,rpejdnjv_5,,0,8.0,20.0,,,,,,,,222.0,rpejdnjv_7,0.0,8.0,8.0,8.0,4.0,8.0,85.833,65.833,23.838,5.0,2.0,0.0,100.0,50.0,,,,,400.0,0.5,1.0,9.0,15.0,10.0,0.0,1.0,3.0,4.0,4.0,5.0,4.0,4.0,4.0,4.0,5.0,3.0,4.0,4.0,4.0,4.0,4.0,46.0,1997.0,1.0,FR,0.0,1.0,5.0,15.0,,1.0
zck3obfr,leem5,rpejdnjv,17,,0,rpejdnjv_5,,0,4.0,20.0,,,,,,,,186.0,rpejdnjv_5,0.0,8.0,8.0,3.0,4.0,8.0,82.167,74.667,37.482,6.0,1.0,0.0,100.0,50.0,,,,,2.0,0.25,5.0,12.0,30.0,10.0,0.0,4.0,3.0,2.0,3.0,3.0,5.0,3.0,5.0,2.0,5.0,2.0,3.0,1.0,4.0,2.0,3.0,58.0,1994.0,1.0,FR,0.0,1.0,6.0,17.0,,1.0
nkp7u01x,leem11,rpejdnjv,17,,0,rpejdnjv_3,,0,7.0,22.0,,,,,,,,181.0,rpejdnjv_9,0.0,8.0,8.0,7.0,0.0,0.0,91.833,57.667,10.386,3.0,1.0,3.0,63.0,94.0,,,,,200.0,0.5,3.0,9.0,29.0,10.0,0.0,2.0,4.0,4.0,5.0,4.0,5.0,5.0,5.0,1.0,4.0,3.0,4.0,1.0,5.0,1.0,3.0,58.0,2000.0,0.0,BI,0.0,1.0,3.0,6.0,,1.0
pvcmlcbn,leem1,rpejdnjv,17,,0,rpejdnjv_6,,0,10.0,25.0,,,,,,,,127.0,rpejdnjv_3,0.0,8.0,8.0,5.0,0.0,8.0,87.833,67.0,24.196,5.0,1.0,0.0,100.0,50.0,,,,,400.0,0.5,5.0,4.0,29.0,20.0,0.0,5.0,4.0,4.0,5.0,4.0,4.0,1.0,5.0,1.0,5.0,4.0,4.0,1.0,4.0,1.0,4.0,61.0,1999.0,1.0,DZ,0.0,1.0,2.0,12.0,,1.0
2nz72whh,leem4,rpejdnjv,17,,0,rpejdnjv_2,,0,6.0,19.0,,,,,,,,217.0,rpejdnjv_7,0.0,8.0,8.0,8.0,0.0,0.0,92.5,55.833,7.815,5.0,2.0,0.0,100.0,50.0,,,,,2.0,0.25,5.0,3.0,31.0,0.0,0.0,4.0,2.0,3.0,3.0,3.0,4.0,2.0,5.0,5.0,5.0,2.0,4.0,3.0,4.0,2.0,3.0,52.0,1995.0,1.0,FR,0.0,1.0,3.0,6.0,,1.0
ya5a8sr3,leem9,rpejdnjv,17,,0,rpejdnjv_4,,1,6.0,16.0,,,,,,,,258.0,rpejdnjv_6,1.0,8.0,8.0,8.0,0.0,0.0,92.5,54.333,5.821,6.0,2.0,0.0,100.0,50.0,,,,,400.0,0.5,3.0,6.0,15.0,10.0,0.0,1.0,3.0,1.0,5.0,5.0,5.0,5.0,4.0,2.0,5.0,1.0,3.0,3.0,4.0,3.0,5.0,56.0,1998.0,0.0,HT,0.0,1.0,2.0,0.0,,1.0
weolk6ul,leem16,rpejdnjv,17,,0,rpejdnjv_3,,1,8.0,22.0,,,,,,,,186.0,rpejdnjv_2,0.0,8.0,8.0,3.0,0.0,3.0,87.833,66.833,23.986,5.0,2.0,0.0,100.0,50.0,,,,,200.0,0.5,8.0,6.0,15.0,20.0,0.0,2.0,5.0,2.0,5.0,1.0,5.0,5.0,5.0,5.0,5.0,1.0,4.0,2.0,2.0,3.0,5.0,59.0,1998.0,0.0,MA,0.0,1.0,5.0,11.0,,1.0
7kvnqzhv,leem8,rpejdnjv,17,,0,rpejdnjv_2,,0,8.0,19.0,,,,,,,,240.0,rpejdnjv_8,0.0,8.0,8.0,3.0,4.0,5.0,83.167,72.5,34.152,3.0,2.0,8.0,85.0,85.0,,,,,200.0,0.5,3.0,9.0,30.0,10.0,0.0,1.0,4.0,4.0,5.0,5.0,4.0,5.0,5.0,4.0,5.0,3.0,2.0,4.0,5.0,5.0,4.0,46.0,1995.0,0.0,BJ,0.0,1.0,3.0,8.0,,0.0
ybkwbvii,leem6,rpejdnjv,17,,0,rpejdnjv_5,,1,8.0,20.0,,,,,,,,222.0,rpejdnjv_10,0.0,8.0,8.0,8.0,0.0,0.0,92.5,55.833,7.815,3.0,2.0,8.0,85.0,85.0,,,,,60.0,5.5,2.0,2.0,30.0,10.0,0.0,1.0,3.0,2.0,4.0,4.0,4.0,5.0,5.0,2.0,4.0,3.0,4.0,2.0,4.0,4.0,5.0,53.0,1995.0,0.0,IT,0.0,1.0,5.0,6.0,,1.0
emg0d2w7,leem2,rpejdnjv,17,,0,rpejdnjv_6,,1,5.0,25.0,,,,,,,,138.0,rpejdnjv_10,0.0,8.0,8.0,6.0,0.0,5.0,89.5,63.0,18.217,3.0,2.0,8.0,85.0,85.0,,,,,200.0,0.5,3.0,12.0,30.0,20.0,2.0,1.0,2.0,2.0,5.0,5.0,5.0,5.0,5.0,2.0,4.0,2.0,4.0,2.0,4.0,3.0,4.0,54.0,1992.0,0.0,CD,0.0,1.0,5.0,6.0,,1.0
wg2u2li2,leem12,rpejdnjv,17,,0,rpejdnjv_4,,0,4.0,16.0,,,,,,,,222.0,rpejdnjv_4,0.0,8.0,8.0,0.0,4.0,8.0,80.0,80.0,45.0,2.0,2.0,8.0,100.0,50.0,,,,,2.0,0.5,5.0,4.0,29.0,20.0,1.0,5.0,3.0,4.0,5.0,2.0,5.0,2.0,5.0,1.0,5.0,1.0,5.0,1.0,5.0,3.0,5.0,66.0,1998.0,1.0,FR,0.0,1.0,4.0,2.0,,1.0
cf9sd7cr,leem7,rpejdnjv,17,,0,rpejdnjv_1,,0,5.0,18.0,,,,,,,,217.0,rpejdnjv_6,0.0,8.0,8.0,8.0,0.0,0.0,92.5,55.833,7.815,6.0,2.0,0.0,100.0,50.0,,,,,200.0,0.5,3.0,9.0,15.0,10.0,0.0,1.0,5.0,2.0,5.0,2.0,5.0,1.0,5.0,2.0,5.0,1.0,5.0,1.0,3.0,2.0,5.0,69.0,1996.0,0.0,FR,0.0,1.0,5.0,26.0,,1.0
d3a3pcnp,leem15,rpejdnjv,17,,0,rpejdnjv_3,,0,7.0,22.0,,,,,,,,181.0,rpejdnjv_5,0.0,8.0,8.0,8.0,0.0,0.0,92.5,55.833,7.815,6.0,1.0,0.0,100.0,50.0,,,,,2.0,0.25,5.0,4.0,15.0,20.0,0.0,6.0,3.0,3.0,4.0,3.0,5.0,4.0,4.0,1.0,4.0,1.0,4.0,1.0,4.0,3.0,5.0,59.0,1994.0,0.0,FR,0.0,0.0,5.0,2.0,5.0,1.0
lwd3fp9l,leem18,rpejdnjv,17,,0,rpejdnjv_6,,0,10.0,25.0,,,,,,,,127.0,rpejdnjv_2,0.0,8.0,8.0,8.0,0.0,0.0,92.5,55.833,7.815,5.0,2.0,0.0,100.0,50.0,,,,,200.0,0.5,3.0,18.0,15.0,20.0,0.0,2.0,4.0,4.0,4.0,4.0,4.0,4.0,3.0,4.0,4.0,4.0,3.0,4.0,4.0,3.0,4.0,45.0,1994.0,1.0,FR,2.0,1.0,5.0,7.0,,1.0
z6p7eajj,leem14,rpejdnjv,17,,0,rpejdnjv_2,,1,5.0,19.0,,,,,,,,206.0,rpejdnjv_4,0.0,8.0,5.0,4.0,4.0,2.0,82.667,69.667,31.05,2.0,2.0,8.0,100.0,50.0,,,,,1.0,0.5,2.0,4.0,15.0,20.0,2.0,2.0,4.0,3.0,4.0,4.0,5.0,4.0,5.0,1.0,4.0,1.0,4.0,3.0,4.0,2.0,5.0,59.0,2002.0,0.0,FR,0.0,1.0,1.0,6.0,,1.0
eh6ljriq,leem10,rpejdnjv,17,,0,rpejdnjv_1,,1,8.0,18.0,,,,,,,,258.0,rpejdnjv_9,4.0,5.0,3.0,7.0,2.0,2.0,84.5,54.833,7.974,3.0,1.0,3.0,63.0,94.0,,,,,200.0,0.5,3.0,9.0,30.0,10.0,1.0,0.0,3.0,2.0,4.0,4.0,4.0,4.0,5.0,1.0,4.0,4.0,2.0,4.0,4.0,5.0,4.0,48.0,1994.0,0.0,DZ,0.0,1.0,5.0,16.0,,1.0
vmt5487m,leem17,rpejdnjv,17,,0,rpejdnjv_4,,0,6.0,16.0,,,,,,,,258.0,rpejdnjv_3,4.0,8.0,8.0,8.0,0.0,0.0,92.5,50.0,0.0,5.0,1.0,0.0,100.0,50.0,,,,,200.0,10.0,2.0,4.0,8.0,1.0,0.0,2.0,1.0,2.0,3.0,3.0,1.0,1.0,3.0,1.0,2.0,1.0,1.0,1.0,1.0,4.0,5.0,46.0,2000.0,0.0,FR,0.0,1.0,3.0,15.0,,1.0
5jr55zaa,leem3,rpejdnjv,17,,0,rpejdnjv_1,,0,5.0,18.0,,,,,,,,217.0,rpejdnjv_8,0.0,8.0,8.0,3.0,0.0,8.0,86.333,70.5,29.433,3.0,2.0,8.0,85.0,85.0,,,,,2.0,0.5,3.0,6.0,30.0,20.0,0.0,3.0,4.0,2.0,5.0,1.0,5.0,1.0,5.0,2.0,5.0,1.0,4.0,2.0,5.0,1.0,5.0,70.0,1996.0,0.0,FR,0.0,1.0,5.0,26.0,,1.0
nwik6h47,leem13,rpejdnjv,17,,0,rpejdnjv_5,,0,8.0,20.0,,,,,,,,222.0,rpejdnjv_7,0.0,8.0,8.0,8.0,4.0,8.0,85.833,65.833,23.838,5.0,2.0,0.0,100.0,50.0,,,,,400.0,0.5,1.0,9.0,15.0,10.0,0.0,1.0,3.0,4.0,4.0,5.0,4.0,4.0,4.0,4.0,5.0,3.0,4.0,4.0,4.0,4.0,4.0,46.0,1997.0,1.0,FR,0.0,1.0,5.0,15.0,,1.0
zck3obfr,leem5,rpejdnjv,18,,0,rpejdnjv_5,,0,4.0,18.0,,,,,,,,204.0,rpejdnjv_5,0.0,8.0,8.0,3.0,4.0,8.0,82.167,74.667,37.482,6.0,1.0,0.0,100.0,50.0,,,,,2.0,0.25,5.0,12.0,30.0,10.0,0.0,4.0,3.0,2.0,3.0,3.0,5.0,3.0,5.0,2.0,5.0,2.0,3.0,1.0,4.0,2.0,3.0,58.0,1994.0,1.0,FR,0.0,1.0,6.0,17.0,,1.0
nkp7u01x,leem11,rpejdnjv,18,,0,rpejdnjv_3,,0,8.0,23.0,,,,,,,,168.0,rpejdnjv_9,0.0,8.0,8.0,7.0,0.0,0.0,91.833,57.667,10.386,3.0,1.0,3.0,63.0,94.0,,,,,200.0,0.5,3.0,9.0,29.0,10.0,0.0,2.0,4.0,4.0,5.0,4.0,5.0,5.0,5.0,1.0,4.0,3.0,4.0,1.0,5.0,1.0,3.0,58.0,2000.0,0.0,BI,0.0,1.0,3.0,6.0,,1.0
pvcmlcbn,leem1,rpejdnjv,18,,0,rpejdnjv_6,,0,10.0,29.0,,,,,,,,37.0,rpejdnjv_3,0.0,8.0,8.0,5.0,0.0,8.0,87.833,67.0,24.196,5.0,1.0,0.0,100.0,50.0,,,,,400.0,0.5,5.0,4.0,29.0,20.0,0.0,5.0,4.0,4.0,5.0,4.0,4.0,1.0,5.0,1.0,5.0,4.0,4.0,1.0,4.0,1.0,4.0,61.0,1999.0,1.0,DZ,0.0,1.0,2.0,12.0,,1.0
2nz72whh,leem4,rpejdnjv,18,,0,rpejdnjv_2,,1,5.0,19.0,,,,,,,,206.0,rpejdnjv_7,0.0,8.0,8.0,8.0,0.0,0.0,92.5,55.833,7.815,5.0,2.0,0.0,100.0,50.0,,,,,2.0,0.25,5.0,3.0,31.0,0.0,0.0,4.0,2.0,3.0,3.0,3.0,4.0,2.0,5.0,5.0,5.0,2.0,4.0,3.0,4.0,2.0,3.0,52.0,1995.0,1.0,FR,0.0,1.0,3.0,6.0,,1.0
ya5a8sr3,leem9,rpejdnjv,18,,0,rpejdnjv_4,,0,8.0,20.0,,,,,,,,222.0,rpejdnjv_6,1.0,8.0,8.0,8.0,0.0,0.0,92.5,54.333,5.821,6.0,2.0,0.0,100.0,50.0,,,,,400.0,0.5,3.0,6.0,15.0,10.0,0.0,1.0,3.0,1.0,5.0,5.0,5.0,5.0,4.0,2.0,5.0,1.0,3.0,3.0,4.0,3.0,5.0,56.0,1998.0,0.0,HT,0.0,1.0,2.0,0.0,,1.0
weolk6ul,leem16,rpejdnjv,18,,0,rpejdnjv_3,,1,8.0,23.0,,,,,,,,168.0,rpejdnjv_2,0.0,8.0,8.0,3.0,0.0,3.0,87.833,66.833,23.986,5.0,2.0,0.0,100.0,50.0,,,,,200.0,0.5,8.0,6.0,15.0,20.0,0.0,2.0,5.0,2.0,5.0,1.0,5.0,5.0,5.0,5.0,5.0,1.0,4.0,2.0,2.0,3.0,5.0,59.0,1998.0,0.0,MA,0.0,1.0,5.0,11.0,,1.0
7kvnqzhv,leem8,rpejdnjv,18,,0,rpejdnjv_2,,0,7.0,19.0,,,,,,,,228.0,rpejdnjv_8,0.0,8.0,8.0,3.0,4.0,5.0,83.167,72.5,34.152,3.0,2.0,8.0,85.0,85.0,,,,,200.0,0.5,3.0,9.0,30.0,10.0,0.0,1.0,4.0,4.0,5.0,5.0,4.0,5.0,5.0,4.0,5.0,3.0,2.0,4.0,5.0,5.0,4.0,46.0,1995.0,0.0,BJ,0.0,1.0,3.0,8.0,,0.0
ybkwbvii,leem6,rpejdnjv,18,,0,rpejdnjv_5,,0,8.0,18.0,,,,,,,,258.0,rpejdnjv_10,0.0,8.0,8.0,8.0,0.0,0.0,92.5,55.833,7.815,3.0,2.0,8.0,85.0,85.0,,,,,60.0,5.5,2.0,2.0,30.0,10.0,0.0,1.0,3.0,2.0,4.0,4.0,4.0,5.0,5.0,2.0,4.0,3.0,4.0,2.0,4.0,4.0,5.0,53.0,1995.0,0.0,IT,0.0,1.0,5.0,6.0,,1.0
emg0d2w7,leem2,rpejdnjv,18,,0,rpejdnjv_6,,1,10.0,29.0,,,,,,,,37.0,rpejdnjv_10,0.0,8.0,8.0,6.0,0.0,5.0,89.5,63.0,18.217,3.0,2.0,8.0,85.0,85.0,,,,,200.0,0.5,3.0,12.0,30.0,20.0,2.0,1.0,2.0,2.0,5.0,5.0,5.0,5.0,5.0,2.0,4.0,2.0,4.0,2.0,4.0,3.0,4.0,54.0,1992.0,0.0,CD,0.0,1.0,5.0,6.0,,1.0
wg2u2li2,leem12,rpejdnjv,18,,0,rpejdnjv_4,,0,5.0,20.0,,,,,,,,195.0,rpejdnjv_4,0.0,8.0,8.0,0.0,4.0,8.0,80.0,80.0,45.0,2.0,2.0,8.0,100.0,50.0,,,,,2.0,0.5,5.0,4.0,29.0,20.0,1.0,5.0,3.0,4.0,5.0,2.0,5.0,2.0,5.0,1.0,5.0,1.0,5.0,1.0,5.0,3.0,5.0,66.0,1998.0,1.0,FR,0.0,1.0,4.0,2.0,,1.0
cf9sd7cr,leem7,rpejdnjv,18,,0,rpejdnjv_1,,1,4.0,16.0,,,,,,,,222.0,rpejdnjv_6,0.0,8.0,8.0,8.0,0.0,0.0,92.5,55.833,7.815,6.0,2.0,0.0,100.0,50.0,,,,,200.0,0.5,3.0,9.0,15.0,10.0,0.0,1.0,5.0,2.0,5.0,2.0,5.0,1.0,5.0,2.0,5.0,1.0,5.0,1.0,3.0,2.0,5.0,69.0,1996.0,0.0,FR,0.0,1.0,5.0,26.0,,1.0
d3a3pcnp,leem15,rpejdnjv,18,,0,rpejdnjv_3,,0,7.0,23.0,,,,,,,,165.0,rpejdnjv_5,0.0,8.0,8.0,8.0,0.0,0.0,92.5,55.833,7.815,6.0,1.0,0.0,100.0,50.0,,,,,2.0,0.25,5.0,4.0,15.0,20.0,0.0,6.0,3.0,3.0,4.0,3.0,5.0,4.0,4.0,1.0,4.0,1.0,4.0,1.0,4.0,3.0,5.0,59.0,1994.0,0.0,FR,0.0,0.0,5.0,2.0,5.0,1.0
lwd3fp9l,leem18,rpejdnjv,18,,0,rpejdnjv_6,,0,9.0,29.0,,,,,,,,48.0,rpejdnjv_2,0.0,8.0,8.0,8.0,0.0,0.0,92.5,55.833,7.815,5.0,2.0,0.0,100.0,50.0,,,,,200.0,0.5,3.0,18.0,15.0,20.0,0.0,2.0,4.0,4.0,4.0,4.0,4.0,4.0,3.0,4.0,4.0,4.0,3.0,4.0,4.0,3.0,4.0,45.0,1994.0,1.0,FR,2.0,1.0,5.0,7.0,,1.0
z6p7eajj,leem14,rpejdnjv,18,,0,rpejdnjv_2,,0,7.0,19.0,,,,,,,,228.0,rpejdnjv_4,0.0,8.0,5.0,4.0,4.0,2.0,82.667,69.667,31.05,2.0,2.0,8.0,100.0,50.0,,,,,1.0,0.5,2.0,4.0,15.0,20.0,2.0,2.0,4.0,3.0,4.0,4.0,5.0,4.0,5.0,1.0,4.0,1.0,4.0,3.0,4.0,2.0,5.0,59.0,2002.0,0.0,FR,0.0,1.0,1.0,6.0,,1.0
eh6ljriq,leem10,rpejdnjv,18,,0,rpejdnjv_1,,0,5.0,16.0,,,,,,,,240.0,rpejdnjv_9,4.0,5.0,3.0,7.0,2.0,2.0,84.5,54.833,7.974,3.0,1.0,3.0,63.0,94.0,,,,,200.0,0.5,3.0,9.0,30.0,10.0,1.0,0.0,3.0,2.0,4.0,4.0,4.0,4.0,5.0,1.0,4.0,4.0,2.0,4.0,4.0,5.0,4.0,48.0,1994.0,0.0,DZ,0.0,1.0,5.0,16.0,,1.0
vmt5487m,leem17,rpejdnjv,18,,0,rpejdnjv_4,,1,7.0,20.0,,,,,,,,213.0,rpejdnjv_3,4.0,8.0,8.0,8.0,0.0,0.0,92.5,50.0,0.0,5.0,1.0,0.0,100.0,50.0,,,,,200.0,10.0,2.0,4.0,8.0,1.0,0.0,2.0,1.0,2.0,3.0,3.0,1.0,1.0,3.0,1.0,2.0,1.0,1.0,1.0,1.0,4.0,5.0,46.0,2000.0,0.0,FR,0.0,1.0,3.0,15.0,,1.0
5jr55zaa,leem3,rpejdnjv,18,,0,rpejdnjv_1,,0,7.0,16.0,,,,,,,,276.0,rpejdnjv_8,0.0,8.0,8.0,3.0,0.0,8.0,86.333,70.5,29.433,3.0,2.0,8.0,85.0,85.0,,,,,2.0,0.5,3.0,6.0,30.0,20.0,0.0,3.0,4.0,2.0,5.0,1.0,5.0,1.0,5.0,2.0,5.0,1.0,4.0,2.0,5.0,1.0,5.0,70.0,1996.0,0.0,FR,0.0,1.0,5.0,26.0,,1.0
nwik6h47,leem13,rpejdnjv,18,,0,rpejdnjv_5,,1,6.0,18.0,,,,,,,,231.0,rpejdnjv_7,0.0,8.0,8.0,8.0,4.0,8.0,85.833,65.833,23.838,5.0,2.0,0.0,100.0,50.0,,,,,400.0,0.5,1.0,9.0,15.0,10.0,0.0,1.0,3.0,4.0,4.0,5.0,4.0,4.0,4.0,4.0,5.0,3.0,4.0,4.0,4.0,4.0,4.0,46.0,1997.0,1.0,FR,0.0,1.0,5.0,15.0,,1.0
zck3obfr,leem5,rpejdnjv,19,,0,rpejdnjv_5,,1,4.0,19.0,,,,,,,,195.0,rpejdnjv_5,0.0,8.0,8.0,3.0,4.0,8.0,82.167,74.667,37.482,6.0,1.0,0.0,100.0,50.0,,,,,2.0,0.25,5.0,12.0,30.0,10.0,0.0,4.0,3.0,2.0,3.0,3.0,5.0,3.0,5.0,2.0,5.0,2.0,3.0,1.0,4.0,2.0,3.0,58.0,1994.0,1.0,FR,0.0,1.0,6.0,17.0,,1.0
nkp7u01x,leem11,rpejdnjv,19,,0,rpejdnjv_3,,1,6.0,21.0,,,,,,,,190.0,rpejdnjv_9,0.0,8.0,8.0,7.0,0.0,0.0,91.833,57.667,10.386,3.0,1.0,3.0,63.0,94.0,,,,,200.0,0.5,3.0,9.0,29.0,10.0,0.0,2.0,4.0,4.0,5.0,4.0,5.0,5.0,5.0,1.0,4.0,3.0,4.0,1.0,5.0,1.0,3.0,58.0,2000.0,0.0,BI,0.0,1.0,3.0,6.0,,1.0
pvcmlcbn,leem1,rpejdnjv,19,,0,rpejdnjv_6,,0,4.0,16.0,,,,,,,,222.0,rpejdnjv_3,0.0,8.0,8.0,5.0,0.0,8.0,87.833,67.0,24.196,5.0,1.0,0.0,100.0,50.0,,,,,400.0,0.5,5.0,4.0,29.0,20.0,0.0,5.0,4.0,4.0,5.0,4.0,4.0,1.0,5.0,1.0,5.0,4.0,4.0,1.0,4.0,1.0,4.0,61.0,1999.0,1.0,DZ,0.0,1.0,2.0,12.0,,1.0
2nz72whh,leem4,rpejdnjv,19,,0,rpejdnjv_2,,0,6.0,19.0,,,,,,,,217.0,rpejdnjv_7,0.0,8.0,8.0,8.0,0.0,0.0,92.5,55.833,7.815,5.0,2.0,0.0,100.0,50.0,,,,,2.0,0.25,5.0,3.0,31.0,0.0,0.0,4.0,2.0,3.0,3.0,3.0,4.0,2.0,5.0,5.0,5.0,2.0,4.0,3.0,4.0,2.0,3.0,52.0,1995.0,1.0,FR,0.0,1.0,3.0,6.0,,1.0
ya5a8sr3,leem9,rpejdnjv,19,,0,rpejdnjv_4,,0,8.0,28.0,,,,,,,,78.0,rpejdnjv_6,1.0,8.0,8.0,8.0,0.0,0.0,92.5,54.333,5.821,6.0,2.0,0.0,100.0,50.0,,,,,400.0,0.5,3.0,6.0,15.0,10.0,0.0,1.0,3.0,1.0,5.0,5.0,5.0,5.0,4.0,2.0,5.0,1.0,3.0,3.0,4.0,3.0,5.0,56.0,1998.0,0.0,HT,0.0,1.0,2.0,0.0,,1.0
weolk6ul,leem16,rpejdnjv,19,,0,rpejdnjv_3,,0,8.0,21.0,,,,,,,,204.0,rpejdnjv_2,0.0,8.0,8.0,3.0,0.0,3.0,87.833,66.833,23.986,5.0,2.0,0.0,100.0,50.0,,,,,200.0,0.5,8.0,6.0,15.0,20.0,0.0,2.0,5.0,2.0,5.0,1.0,5.0,5.0,5.0,5.0,5.0,1.0,4.0,2.0,2.0,3.0,5.0,59.0,1998.0,0.0,MA,0.0,1.0,5.0,11.0,,1.0
7kvnqzhv,leem8,rpejdnjv,19,,0,rpejdnjv_2,,0,6.0,19.0,,,,,,,,217.0,rpejdnjv_8,0.0,8.0,8.0,3.0,4.0,5.0,83.167,72.5,34.152,3.0,2.0,8.0,85.0,85.0,,,,,200.0,0.5,3.0,9.0,30.0,10.0,0.0,1.0,4.0,4.0,5.0,5.0,4.0,5.0,5.0,4.0,5.0,3.0,2.0,4.0,5.0,5.0,4.0,46.0,1995.0,0.0,BJ,0.0,1.0,3.0,8.0,,0.0
ybkwbvii,leem6,rpejdnjv,19,,0,rpejdnjv_5,,0,8.0,19.0,,,,,,,,240.0,rpejdnjv_10,0.0,8.0,8.0,8.0,0.0,0.0,92.5,55.833,7.815,3.0,2.0,8.0,85.0,85.0,,,,,60.0,5.5,2.0,2.0,30.0,10.0,0.0,1.0,3.0,2.0,4.0,4.0,4.0,5.0,5.0,2.0,4.0,3.0,4.0,2.0,4.0,4.0,5.0,53.0,1995.0,0.0,IT,0.0,1.0,5.0,6.0,,1.0
emg0d2w7,leem2,rpejdnjv,19,,0,rpejdnjv_6,,1,4.0,16.0,,,,,,,,222.0,rpejdnjv_10,0.0,8.0,8.0,6.0,0.0,5.0,89.5,63.0,18.217,3.0,2.0,8.0,85.0,85.0,,,,,200.0,0.5,3.0,12.0,30.0,20.0,2.0,1.0,2.0,2.0,5.0,5.0,5.0,5.0,5.0,2.0,4.0,2.0,4.0,2.0,4.0,3.0,4.0,54.0,1992.0,0.0,CD,0.0,1.0,5.0,6.0,,1.0
wg2u2li2,leem12,rpejdnjv,19,,0,rpejdnjv_4,,0,10.0,28.0,,,,,,,,60.0,rpejdnjv_4,0.0,8.0,8.0,0.0,4.0,8.0,80.0,80.0,45.0,2.0,2.0,8.0,100.0,50.0,,,,,2.0,0.5,5.0,4.0,29.0,20.0,1.0,5.0,3.0,4.0,5.0,2.0,5.0,2.0,5.0,1.0,5.0,1.0,5.0,1.0,5.0,3.0,5.0,66.0,1998.0,1.0,FR,0.0,1.0,4.0,2.0,,1.0
cf9sd7cr,leem7,rpejdnjv,19,,0,rpejdnjv_1,,0,3.0,12.0,,,,,,,,231.0,rpejdnjv_6,0.0,8.0,8.0,8.0,0.0,0.0,92.5,55.833,7.815,6.0,2.0,0.0,100.0,50.0,,,,,200.0,0.5,3.0,9.0,15.0,10.0,0.0,1.0,5.0,2.0,5.0,2.0,5.0,1.0,5.0,2.0,5.0,1.0,5.0,1.0,3.0,2.0,5.0,69.0,1996.0,0.0,FR,0.0,1.0,5.0,26.0,,1.0
d3a3pcnp,leem15,rpejdnjv,19,,0,rpejdnjv_3,,0,7.0,21.0,,,,,,,,197.0,rpejdnjv_5,0.0,8.0,8.0,8.0,0.0,0.0,92.5,55.833,7.815,6.0,1.0,0.0,100.0,50.0,,,,,2.0,0.25,5.0,4.0,15.0,20.0,0.0,6.0,3.0,3.0,4.0,3.0,5.0,4.0,4.0,1.0,4.0,1.0,4.0,1.0,4.0,3.0,5.0,59.0,1994.0,0.0,FR,0.0,0.0,5.0,2.0,5.0,1.0
